timestamp,gyroscope_x,gyroscope_y,gyroscope_z,acc_x,acc_y,acc_z
1646821861.801140,-2090,-171,144,-3500,-1449,43
0.001463,-2735,99,265,-1949,765,17
0.002452,-2420,60,206,-2688,-1515,-185
0.002455,-2446,13,140,-2119,1279,-108
0.002443,-2419,-144,160,-3667,-1259,185
0.002420,-2534,135,173,-1926,-637,649
0.001301,-2712,71,159,-2366,494,-608
0.004589,-2044,-53,130,-2181,-625,506
0.001295,-2837,-59,221,-2772,0,-604
0.001298,-2082,49,176,-1463,-518,479
0.004580,-2736,36,143,-2461,99,-637
0.001305,-2262,-37,152,-2325,-858,523
0.002412,-2695,47,183,-2523,333,-583
0.001306,-2019,-43,60,-2046,-566,1436
0.003480,-2869,-42,164,-3217,127,-357
0.002384,-2017,31,124,-2563,-836,705
0.001315,-2716,78,202,-2448,111,-361
0.002416,-2056,-74,129,-2743,-1795,640
0.003476,-2937,90,213,-2863,736,-1211
0.001304,-1922,41,172,-2288,-1363,624
0.003488,-2838,38,246,-2353,-141,783
0.002397,-2341,-90,154,-2737,-1403,664
0.001297,-2640,137,178,-2041,1622,-938
0.003497,-2008,17,185,-1904,-2519,721
0.002397,-2921,-83,194,-2060,932,-920
0.002409,-2100,-155,161,-2492,-1502,302
0.002400,-2710,-28,199,-2189,1134,-280
0.001318,-2192,-96,188,-2335,-1963,1065
0.003485,-2753,-43,227,-2699,805,-183
0.002395,-2152,-32,232,-3056,-1180,37
0.002389,-2616,19,188,-2590,464,-303
0.001317,-2385,-113,186,-2766,-1934,517
0.003482,-2650,-85,148,-2975,881,-107
0.002401,-2316,-93,218,-3130,-1000,488
0.001300,-2554,53,266,-2463,-388,349
0.003475,-2501,-66,236,-2569,-563,78
0.002394,-2346,-70,190,-2879,484,-178
0.001313,-2467,-49,254,-2705,-1700,264
0.004627,-2506,100,266,-2059,391,159
0.001318,-2399,-136,201,-2814,-1251,393
0.001313,-2496,-22,235,-2578,1191,-216
0.003501,-2264,35,265,-2350,-2381,1314
0.001314,-2685,29,283,-2571,1837,-1119
0.002443,-2068,-22,287,-2677,-1889,546
0.003535,-2704,26,294,-2346,1394,-621
0.001304,-2047,1,260,-2674,-1823,928
0.003502,-2964,50,279,-3210,1378,-750
0.002449,-1968,114,244,-2744,-2009,1065
0.001309,-2723,14,250,-2686,1554,-144
0.002412,-1974,-64,229,-3129,-2020,1213
0.001324,-3005,131,290,-2668,1259,-1102
0.004592,-1645,110,256,-2060,-1367,788
0.001306,-2945,-10,355,-2665,306,-137
0.001300,-2063,-49,254,-2530,-15,546
0.003480,-2662,78,335,-2600,-713,-163
0.002381,-2050,66,281,-1990,846,247
0.001305,-2410,-73,317,-3382,-1324,23
0.003473,-2346,64,219,-2675,996,-317
0.002396,-2206,45,231,-2841,-2027,771
0.002393,-2552,19,270,-2722,1914,-502
0.002412,-2024,-2,235,-3192,-2112,1212
0.002401,-2687,160,274,-2506,1148,-323
0.004575,-1871,77,248,-2814,-1096,1251
0.000208,-2789,49,358,-3263,768,-493
0.002401,-1780,60,292,-2452,-1301,790
0.003484,-2623,109,285,-2602,100,-187
0.001294,-2070,79,254,-2715,400,523
0.002417,-2481,82,300,-2901,-925,456
0.001468,-2200,61,212,-2370,731,518
0.002435,-2320,26,239,-3328,-867,1092
0.003487,-2336,43,252,-3062,1769,-954
0.001320,-1840,202,266,-2635,-2109,2112
0.002398,-2790,140,315,-2963,672,-500
0.003481,-1843,169,222,-2163,165,-173
0.001302,-2342,200,252,-2540,-1116,91
0.002399,-2322,13,200,-2591,1070,-422
0.003486,-1949,39,211,-3020,-1384,1545
0.002387,-2469,153,280,-2930,964,0
0.001313,-1958,205,225,-2437,-638,1216
0.003499,-2425,166,242,-2919,-632,-553
0.002391,-1962,108,167,-2348,822,-359
0.001302,-2229,15,205,-3069,-1243,488
0.002413,-2381,96,231,-2680,557,-84
0.003488,-2180,136,225,-3016,-1297,471
0.001344,-2277,149,246,-2725,1174,-696
0.003894,-1866,70,210,-2849,-1333,938
0.001401,-2638,123,302,-2965,-508,-969
0.002450,-2024,203,251,-2448,1045,-1128
0.002444,-1950,81,217,-2770,-2084,1074
0.002436,-2490,51,250,-3030,420,-10
0.002451,-2074,149,221,-3015,-690,209
0.002442,-2373,203,228,-2673,79,-263
0.001400,-1954,87,205,-2514,-454,-140
0.003575,-2247,-33,246,-3335,-1548,-8
0.002447,-2376,104,238,-3151,477,-1459
0.001348,-1942,269,241,-2218,-1146,-45
0.003560,-2514,92,252,-2825,-582,-504
0.001348,-2220,36,242,-2783,-574,-635
0.002466,-2198,139,264,-2538,-1562,-431
0.002452,-2376,57,252,-2550,593,-1209
0.001451,-2109,-24,308,-2855,-1965,203
0.003535,-2472,53,337,-2859,-622,-565
0.002473,-2302,64,303,-2598,-1018,-85
0.002487,-2384,-61,278,-3052,-590,-878
0.002438,-2202,50,303,-2734,-833,-685
0.002454,-2345,31,344,-2854,-1533,-465
0.002485,-2445,11,360,-2671,-1452,-437
0.001357,-2328,-10,333,-2463,-839,-1052
0.002493,-2531,2,398,-2770,-1338,-1356
0.002446,-2450,2,396,-2602,-1503,-1338
0.002463,-2444,-156,413,-2622,-1357,-968
0.003544,-2563,-167,420,-2953,-713,-539
0.001347,-2449,-86,441,-2666,-238,-160
0.001354,-2430,-171,397,-2939,-2087,365
0.003567,-2756,-118,484,-3252,-318,-1271
0.002506,-2294,-75,460,-3042,-1140,-462
0.003555,-2574,-132,450,-3449,-1227,-127
0.001357,-2733,-128,428,-3400,-673,-210
0.001349,-2477,-16,496,-2976,-1275,142
0.003536,-2560,-20,520,-3168,-890,-392
0.002443,-2556,-97,489,-3416,-812,-291
0.002457,-2645,-32,547,-3574,-1592,-1073
0.002436,-2550,24,556,-2864,-266,-782
0.001357,-2668,-105,536,-3033,-1717,306
0.002457,-2793,-120,579,-3049,-119,-1267
0.003603,-2399,-83,546,-2722,-576,-228
0.001351,-2761,-264,491,-3568,-991,285
0.003556,-2483,-169,494,-3665,-972,276
0.000314,-2660,-70,543,-3418,-663,555
0.003546,-2694,50,559,-2832,-493,-64
0.002470,-2534,72,557,-3190,-1271,-760
0.001360,-2703,-42,555,-2991,-1010,-862
0.003536,-2615,-92,563,-3165,-929,-338
0.002447,-2692,21,555,-2739,-504,827
0.001343,-2803,-49,528,-3148,-707,132
0.003549,-2664,51,555,-2666,-668,-554
0.002445,-2474,-6,510,-2563,-1188,-138
0.002463,-2676,-209,473,-3518,-256,-611
0.002439,-2596,-128,455,-3427,-290,290
0.001347,-2612,-33,500,-3253,-1370,812
0.002446,-2720,40,492,-2991,-490,377
0.002473,-2591,-56,453,-2803,-626,95
0.003532,-2663,41,460,-2648,-788,-801
0.001355,-2739,-27,487,-2704,-59,-1331
0.002476,-2513,-138,480,-2741,-1264,214
0.003557,-2864,-223,437,-3346,-755,500
0.001348,-2713,-131,429,-2919,290,407
0.001346,-2657,-42,480,-3014,-910,476
0.004663,-2606,-110,380,-3168,-196,163
0.001373,-2577,-154,393,-3589,-934,517
0.002434,-2719,0,372,-3319,-941,-101
0.001336,-2669,53,432,-2832,166,-642
0.003540,-2651,-44,420,-2785,-1447,198
0.002446,-2771,-78,453,-2829,-957,-475
0.001353,-2760,-120,423,-2521,-626,-535
0.003520,-2876,-164,389,-2694,-280,-362
0.002448,-2584,-189,381,-2661,-442,556
0.001358,-2761,-233,302,-3063,-459,1270
0.003540,-2756,-118,356,-3361,-635,922
0.002439,-2590,-41,376,-3100,-301,140
0.002429,-2616,-106,372,-3148,-195,19
0.002437,-2657,-31,396,-3666,-651,-392
0.001351,-2672,87,422,-2916,-1353,-331
0.002438,-2871,47,392,-2500,-370,-523
0.002488,-2792,-108,385,-2702,-182,-1016
0.002453,-2617,-151,381,-2471,-457,-226
0.002453,-2833,-166,389,-2697,-1187,890
0.001384,-2920,-227,408,-2556,88,286
0.004641,-2630,-191,346,-2533,43,331
0.001349,-2834,-171,367,-2814,-362,718
0.001348,-2564,-174,350,-3034,-350,434
0.003544,-2631,-222,356,-3810,174,-122
0.001353,-2748,-50,382,-3699,-598,-745
0.003533,-2613,66,411,-2802,-841,-653
0.002445,-2884,-10,404,-2744,-632,-591
0.001397,-2753,-158,397,-2893,746,-1288
0.002445,-2504,-117,449,-2339,-1603,374
0.003546,-3092,-270,402,-2495,-444,-308
0.001352,-2637,-400,383,-2718,765,-555
0.002439,-2703,-334,408,-2753,-94,637
0.001390,-2923,-284,408,-2979,-39,778
0.003548,-2600,-261,412,-3407,-50,214
0.002428,-2569,-218,420,-3292,676,99
0.001369,-2546,-132,431,-3741,-471,339
0.003553,-2732,-131,407,-3247,-354,-1001
0.002445,-2653,-45,404,-2901,375,-1298
0.002451,-2734,-191,462,-2905,-137,-701
0.002450,-2633,-301,467,-2851,-560,-137
0.001349,-2769,-297,455,-3126,658,-176
0.002441,-2674,-275,428,-2752,755,661
0.003548,-2526,-404,414,-3127,-990,1000
0.002465,-2949,-290,423,-3242,598,-314
0.001384,-2452,-214,406,-2700,695,-128
0.003543,-2400,-279,386,-3225,-226,508
0.002445,-2737,-273,429,-3669,-241,579
0.001386,-2574,-135,448,-3240,593,161
0.001343,-2456,-129,456,-3081,461,163
0.004626,-2574,-75,461,-3299,-138,-88
0.001329,-2535,-123,459,-2863,63,-3
0.002437,-2453,-151,449,-2634,700,124
0.001383,-2388,-294,403,-3029,602,423
0.003542,-2550,-304,441,-3263,-575,813
0.002484,-2637,-213,440,-2927,863,-141
0.001331,-2266,-256,445,-3178,273,694
0.003533,-2507,-322,432,-3723,146,744
0.002441,-2429,-221,427,-3720,230,843
0.001355,-2444,-47,436,-2986,-327,1309
0.004620,-2370,-66,496,-3017,317,432
0.001339,-2417,-70,496,-3328,339,201
0.001332,-2320,36,526,-2742,-507,60
0.002476,-2418,-88,473,-2531,502,252
0.002499,-2335,-244,500,-3567,412,1154
0.003549,-2370,-202,485,-3657,-569,650
0.001355,-2527,-126,489,-2984,898,77
0.001352,-2193,-183,479,-3577,-315,149
0.004617,-2393,-128,491,-3626,92,219
0.001336,-2355,-26,458,-3376,180,627
0.001350,-2394,46,464,-3061,-1632,1300
0.002431,-2467,-40,479,-2806,365,418
0.003531,-2256,-17,519,-3448,463,-238
0.002491,-2285,48,495,-3119,-1487,1159
0.001337,-2605,98,532,-2858,211,1508
0.003524,-2249,-40,543,-3627,778,596
0.002429,-2199,54,544,-3350,255,1141
0.002433,-2374,180,593,-3163,-342,731
0.002450,-2274,105,571,-3304,172,-317
0.002437,-2334,119,539,-3040,-392,113
0.001371,-2370,83,496,-3193,958,-185
0.002452,-2284,158,518,-3132,-1476,1512
0.003534,-2560,180,548,-2836,-920,1151
0.001332,-2402,121,533,-2709,-31,-23
0.002432,-2154,124,510,-2608,-517,60
0.002462,-2343,104,486,-2658,-1674,1356
0.003589,-2617,65,518,-3209,259,52
0.001385,-2115,200,543,-2818,626,603
0.001362,-2357,174,547,-3051,-1740,1895
0.003587,-2466,151,491,-3224,194,-64
0.002442,-2324,196,533,-2960,337,-599
0.002447,-2260,317,581,-2763,-2391,255
0.001360,-2796,158,553,-2851,-445,-1251
0.002493,-2244,123,485,-2614,331,-218
0.003542,-2505,18,525,-2965,-2839,1418
0.001347,-2941,142,595,-2622,-74,1039
0.002434,-2369,54,523,-3321,415,-229
0.003551,-2326,193,509,-2958,-1742,1370
0.001345,-2642,183,573,-3345,-912,883
0.003548,-2426,180,595,-3456,1146,-1000
0.001417,-2186,392,545,-3032,-2371,1304
0.002455,-2973,247,589,-3474,-932,-447
0.002441,-2377,227,530,-2905,443,-1026
0.001383,-2382,232,561,-3116,-1032,131
0.004633,-2795,187,595,-3016,-1264,706
0.001341,-2666,262,619,-3094,-250,514
0.001334,-2526,218,536,-3021,98,943
0.002489,-2623,293,562,-3119,-2091,986
0.003551,-2714,311,577,-2808,467,-106
0.001358,-2272,324,506,-3056,-570,1232
0.004654,-2703,353,536,-3434,-1778,1300
0.001348,-2645,552,644,-3180,-585,462
0.001312,-2451,502,609,-2897,9,1
0.002442,-2303,370,600,-3129,-1062,993
0.002442,-2730,331,617,-3810,-1361,506
0.002445,-2639,531,617,-3284,-664,399
0.002449,-2527,537,605,-3042,-404,1274
0.003564,-2635,379,566,-3509,-1000,1326
0.001357,-2621,553,605,-3302,-1119,1658
0.001352,-2799,596,603,-3007,156,611
0.003783,-2405,643,605,-2755,-2033,1178
0.002465,-2792,515,546,-3357,-686,925
0.001428,-2603,589,611,-2941,-239,1571
0.002446,-2505,640,636,-3328,-958,1684
0.002438,-2752,719,654,-3248,46,1297
0.003595,-2412,707,651,-3743,-900,1414
0.001346,-2552,641,569,-3793,-129,1287
0.001384,-2667,768,670,-3672,-1175,1344
0.004655,-2656,775,637,-3521,45,594
0.001348,-2530,774,592,-3371,314,434
0.002409,-2406,788,554,-2778,-1955,1570
0.001343,-2973,797,568,-2502,-237,465
0.003528,-2475,804,628,-2351,673,-369
0.002446,-2300,679,591,-2690,-222,885
0.001367,-2676,664,612,-2638,-944,2088
0.002451,-2636,743,644,-2922,313,987
0.003531,-2401,806,613,-2799,1408,-996
0.001346,-2171,729,602,-2835,-694,-647
0.004650,-2546,756,638,-2483,-360,-524
0.001346,-2419,595,585,-2359,592,-1020
0.001353,-2371,569,600,-2543,1613,-1175
0.002430,-2341,606,604,-1940,-2,-153
0.003575,-2326,580,530,-1473,-98,-878
0.002451,-2557,426,551,-1416,2121,-2691
0.001358,-2092,399,546,-1234,1089,-1861
0.002450,-2211,198,555,-1644,1576,-1547
0.002464,-2156,130,550,-2207,1377,-1960
0.002483,-1968,181,508,-1930,1145,-1783
0.002430,-1988,113,482,-1784,504,-2398
0.002498,-2109,36,563,-2010,1875,-4041
0.001359,-1858,-97,458,-1799,1026,-3438
0.004649,-1922,-175,442,-1537,-186,-2669
0.001365,-2082,-413,413,-1814,2300,-3273
0.001361,-1862,-441,422,-2048,2341,-3350
0.003536,-1898,-326,383,-895,1596,-3314
0.001352,-1585,-377,373,-991,-843,-3812
0.003554,-2350,-634,386,-1581,2286,-6551
0.002444,-973,-853,273,-1404,435,-2369
0.001371,-2013,-1066,297,-2822,-537,-1719
0.002444,-2266,-967,301,-2705,39,-3237
0.001353,-1897,-636,339,-2085,319,-3990
0.003541,-1506,-972,319,-2695,139,-3012
0.002498,-1850,-1289,361,-3964,-1089,-1412
0.001367,-2064,-1072,426,-4190,-124,-2178
0.003540,-1652,-775,362,-2130,1221,-602
0.002475,-1777,-1041,370,-3930,-1946,-1897
0.001359,-2424,-931,485,-3505,177,-4087
0.003546,-1300,-735,395,-2714,-98,-2783
0.001371,-2147,-1050,371,-4012,-1305,-912
0.004658,-2466,-1086,454,-4470,-568,-500
0.001368,-1822,-848,445,-4488,-1539,-441
0.001351,-2098,-726,499,-4063,667,-108
0.002443,-1924,-916,435,-5190,-631,397
0.003545,-2396,-593,550,-4716,-1811,574
0.001351,-2061,-419,578,-4320,241,-100
0.002436,-1845,-635,559,-5129,72,-642
0.002452,-2069,-599,582,-4945,-2683,834
0.002458,-2617,-372,685,-4856,-482,-1486
0.002451,-2240,-212,654,-4097,-331,-213
0.002457,-2164,-448,582,-4520,-1458,1330
0.002456,-2623,-442,685,-5124,-1391,1810
0.001347,-2247,-176,734,-4205,130,1588
0.004665,-2298,-141,663,-4764,-111,1036
0.001375,-2392,-87,672,-4605,-1920,1744
0.001379,-2453,-69,712,-4829,-431,311
0.002490,-2167,55,700,-4474,-1435,1546
0.002445,-2691,150,746,-3924,-948,1525
0.002430,-2580,86,741,-3638,-298,891
0.002423,-2403,70,736,-3024,312,877
0.002457,-2342,-20,723,-3562,-1407,1542
0.003543,-2637,-15,692,-3482,-325,1118
0.001345,-2455,74,690,-3419,141,1417
0.001378,-2444,116,705,-3619,-467,1882
0.003536,-2496,19,716,-3700,-272,1495
0.002473,-2332,137,703,-3532,-1895,1882
0.002431,-2705,237,740,-3060,13,979
0.002454,-2346,176,770,-3141,-1205,1211
0.001336,-2602,94,784,-3157,-163,936
0.003551,-2456,41,813,-3023,-386,1374
0.002439,-2432,-5,791,-3152,170,1093
0.001338,-2325,54,745,-3521,-80,1147
0.003537,-2484,73,738,-3202,-1542,1753
0.001338,-2586,54,728,-3016,-264,213
0.003506,-2321,45,712,-2724,842,83
0.001361,-2271,-29,700,-3369,-1130,1287
0.003547,-2538,-25,702,-3195,-1725,1412
0.002436,-2665,78,756,-2909,152,34
0.001339,-2159,-2,702,-2882,-204,563
0.003549,-2489,-87,748,-3569,-1969,1689
0.002437,-2456,-77,789,-3647,698,435
0.001333,-2238,54,803,-3031,492,845
0.002539,-2165,41,747,-3230,-1427,1447
0.002432,-2498,-12,731,-3346,114,224
0.001359,-2087,-44,685,-3166,-1428,-130
0.003565,-2414,65,733,-2863,-605,-286
0.001337,-2348,9,726,-3125,-882,-178
0.003578,-2283,-91,708,-3321,-1062,-215
0.002449,-2434,-44,739,-2822,-1787,1159
0.001343,-2460,-92,732,-3078,-649,597
0.002441,-2164,-116,721,-3570,-149,371
0.002464,-2375,77,796,-3461,-2453,1084
0.003535,-2428,191,775,-2835,-1576,323
0.001366,-2274,107,723,-2894,-661,-785
0.001346,-2182,46,749,-3189,-813,-719
0.004683,-2416,50,782,-3308,-2598,-318
0.001353,-2486,72,791,-2597,-2037,-233
0.001377,-2431,-103,721,-3241,-802,-848
0.003551,-2463,-33,713,-3509,-1692,-66
0.002440,-2609,42,741,-3431,-2148,633
0.002492,-2652,95,741,-2852,-1013,648
0.001348,-2537,86,741,-3076,-712,328
0.003566,-2564,113,728,-3202,-1484,215
0.002470,-2694,162,766,-2965,-1353,-521
0.001391,-2440,112,720,-2649,-1639,206
0.003564,-2768,119,791,-2827,-1111,-308
0.001345,-2510,10,712,-3044,-188,-560
0.002447,-2728,1,754,-3113,-425,-491
0.002499,-2672,17,704,-3049,-2370,417
0.003523,-2910,-5,685,-3115,-205,-69
0.001334,-2535,40,664,-3243,-457,-25
0.002460,-2829,146,695,-2973,-664,-247
0.002420,-2786,151,723,-2703,-1977,-310
0.002444,-2884,39,751,-2675,-348,-1091
0.002443,-2439,-68,711,-2898,387,36
0.001392,-2774,-109,680,-3235,-334,659
0.003538,-2715,-27,686,-3043,-984,1261
0.001336,-2798,54,718,-3027,298,-564
0.003574,-2476,10,677,-3190,-25,-1124
0.002443,-2766,68,657,-3014,-153,-1124
0.001349,-2715,43,662,-3219,-1586,-686
0.002429,-2991,32,698,-2647,721,-508
0.003542,-2689,-81,659,-3011,-1001,-244
0.001346,-2782,-19,702,-2431,94,247
0.002437,-2601,-163,662,-2751,631,194
0.002494,-2500,-136,691,-3084,-608,1191
0.003522,-2972,-1,716,-3118,957,-436
0.001369,-2278,43,628,-2991,-488,-37
0.001335,-2735,-2,663,-3058,818,-528
0.004634,-2511,-126,628,-3451,393,-822
0.001338,-2658,6,635,-2956,-1524,518
0.002431,-2860,14,692,-2651,379,-678
0.001336,-2370,-11,700,-2556,976,144
0.003536,-2656,-173,669,-3274,618,-307
0.002435,-2514,-11,705,-2759,-964,809
0.001342,-2611,-91,666,-2882,-240,822
0.003542,-2400,-176,625,-3460,1462,-318
0.002445,-2325,-67,663,-3112,-214,1117
0.001337,-2659,7,696,-3065,-1090,124
0.003523,-2486,-3,684,-3054,697,-714
0.002442,-2466,-114,709,-3269,174,-571
0.001329,-2500,-73,730,-3032,-391,7
0.004615,-2638,-74,699,-3051,679,410
0.001335,-2376,-164,716,-4028,-78,60
0.002424,-2448,-62,678,-3134,59,829
0.001448,-2349,-38,725,-3309,-1623,1035
0.002490,-2620,-21,718,-2706,1608,-43
0.002492,-2208,28,738,-3206,-270,537
0.002478,-2522,18,711,-2785,-1054,985
0.001339,-2566,20,746,-2608,379,-285
0.002496,-2245,-20,720,-2783,600,-381
0.003531,-2521,-44,748,-3030,828,-685
0.002439,-2225,-63,729,-3399,-428,173
0.001336,-2568,-9,775,-3368,-966,923
0.003544,-2555,-76,704,-3091,446,254
0.002433,-2425,-25,717,-3113,693,-32
0.001338,-2298,-5,732,-2977,-348,319
0.003539,-2361,-35,731,-2910,-934,1313
0.002458,-2517,-63,746,-3064,-230,771
0.001345,-2412,21,754,-2954,1187,-602
0.002421,-2179,97,762,-2689,-146,94
0.002430,-2423,-10,789,-3028,-876,41
0.002461,-2377,-120,712,-3126,617,-82
0.002442,-2506,-41,729,-3750,-233,435
0.002439,-2459,67,711,-2914,-127,1014
0.002435,-2458,-3,723,-3234,612,-336
0.002487,-2196,-11,718,-3058,783,573
0.002435,-2444,-6,728,-3775,-346,199
0.002433,-2419,82,752,-2885,-315,686
0.001337,-2446,79,748,-2672,1161,365
0.004620,-2319,29,738,-3055,1422,189
0.001338,-2224,117,704,-3335,254,896
0.001343,-2408,133,715,-3642,-415,390
0.002463,-2277,128,689,-3472,450,597
0.003542,-2293,56,676,-3457,1120,583
0.001338,-2320,133,673,-3302,768,387
0.003529,-2210,172,723,-3088,533,-331
0.001392,-2169,178,711,-3130,-256,710
0.003601,-2099,16,686,-3552,371,1006
0.001363,-2196,137,708,-3088,782,1153
0.002439,-2353,337,721,-2898,530,1033
0.002498,-2253,255,700,-3069,861,-562
0.002442,-1639,135,646,-3198,-850,925
0.003526,-2383,155,678,-3534,-36,186
0.001353,-2072,325,688,-2397,-501,1264
0.001416,-2472,313,766,-2484,1131,-562
0.003565,-1845,137,702,-2563,567,-375
0.001330,-2030,125,714,-3347,85,64
0.002452,-2004,75,642,-3139,-1026,1747
0.003561,-2374,206,711,-2782,1012,253
0.001350,-1987,136,678,-2567,196,-864
0.002632,-1864,213,681,-2034,-27,-433
0.002473,-1968,-98,653,-3320,-650,-896
0.001335,-2114,97,701,-2755,-576,57
0.003575,-2370,93,768,-2895,-392,-483
0.002424,-1929,54,683,-2279,227,388
0.002476,-2100,-146,688,-3830,-988,-730
0.002457,-1971,-69,686,-3175,-1109,-203
0.002452,-2301,-21,700,-3017,-948,-1482
0.002455,-2040,-29,687,-2653,-1466,-768
0.002460,-2473,-17,776,-3032,-1236,-1618
0.001408,-1967,-158,734,-2623,-1695,-1558
0.002462,-2382,-213,781,-2751,-1158,-744
0.003557,-2295,-332,717,-3345,-548,-1409
0.002455,-2330,-137,734,-2730,-685,-933
0.001358,-2209,-73,750,-3012,-1815,-698
0.001371,-2300,-188,789,-3436,-1512,-1118
0.003563,-2234,-264,733,-3687,-1773,-1587
0.002471,-2477,-107,813,-2659,-2090,-1679
0.002453,-2502,-80,884,-2489,-352,-2844
0.002480,-2395,-326,812,-2748,-1996,-1321
0.001373,-2626,-400,842,-3552,-1390,-2249
0.003560,-2405,-317,810,-3067,-1939,-1069
0.002458,-2739,-414,776,-2919,-908,-1204
0.001371,-2568,-494,782,-3324,-1525,-1398
0.002459,-2599,-378,824,-3063,-1183,-1341
0.003537,-2425,-498,778,-3238,-3108,115
0.002447,-2986,-457,782,-3444,-584,-678
0.001381,-2635,-363,813,-3288,-1319,-787
0.002457,-2858,-189,929,-2764,-298,-1204
0.002456,-2492,-420,842,-3346,-1526,-519
0.002473,-2794,-530,792,-3644,-179,-1168
0.003554,-2743,-317,822,-3970,-1325,-867
0.001357,-2813,-198,825,-3180,-881,-346
0.001350,-2627,-443,825,-3815,-2682,85
0.003538,-3019,-365,814,-3330,-901,294
0.002444,-2730,-283,814,-3800,-560,191
0.001358,-2939,-256,827,-3177,-321,1023
0.003546,-2803,-335,811,-3876,-1370,798
0.001351,-2859,-161,840,-3399,-907,327
0.002468,-2618,-164,785,-3535,-696,-127
0.003538,-2867,-182,814,-3207,-582,-394
0.001348,-2878,-162,809,-2940,423,-709
0.002469,-2700,-189,799,-3164,-2148,367
0.003568,-3034,-164,833,-3335,-268,128
0.001348,-2608,-277,808,-3745,-765,713
0.002429,-3067,-257,781,-3560,417,904
0.001398,-2805,-134,810,-3558,113,52
0.005734,-2517,-119,780,-3154,-534,1682
0.000266,-2847,-195,857,-3465,-1444,1361
0.001342,-2727,-196,806,-2915,231,232
0.003547,-2707,-138,785,-2762,-939,-186
0.002453,-2701,-148,778,-2468,-389,-534
0.002445,-2640,-362,809,-2943,364,-352
0.002445,-2675,-395,739,-3676,-953,905
0.001351,-2842,-161,797,-3688,-219,497
0.002446,-2500,-223,747,-3394,-683,-30
0.003533,-2653,-217,705,-2316,269,408
0.002456,-2631,-296,747,-2945,-215,-522
0.001350,-2483,-288,698,-2814,839,-316
0.003550,-2566,-359,741,-3666,-1852,351
0.002458,-2626,-354,723,-3024,-154,872
0.001343,-2582,-432,725,-3821,-35,-21
0.001336,-2506,-310,667,-3393,396,23
0.004693,-2518,-316,715,-3238,-1362,-179
0.001366,-2467,-398,645,-2868,-1849,-349
0.002452,-2939,-352,748,-2755,373,-2066
0.002474,-2328,-444,651,-2591,-822,-1042
0.002445,-2932,-475,682,-2594,128,-416
0.002442,-2500,-644,617,-3463,-345,729
0.002449,-2641,-540,628,-3643,1069,1401
0.002478,-2485,-357,656,-3947,-1331,1488
0.001341,-2638,-227,683,-2875,409,-82
0.003551,-2333,-329,648,-3281,-1076,-1271
0.002453,-2638,-396,607,-3196,-202,-1141
0.001375,-2762,-533,659,-4054,-63,-1581
0.001358,-2544,-527,618,-3629,-1760,704
0.003546,-2989,-461,641,-3698,-260,1035
0.002450,-2434,-483,576,-3423,-749,1822
0.003526,-2939,-367,659,-3695,896,-97
0.002442,-2339,-229,646,-3165,520,-484
0.000273,-2486,-174,645,-2828,-778,863
0.004647,-2725,-389,588,-3789,-1048,382
0.001361,-2934,-234,674,-3803,1133,-922
0.002456,-2356,-260,605,-4014,-707,-219
0.001401,-2774,-360,578,-3967,-271,1036
0.003546,-2734,-347,575,-4410,-845,1232
0.002476,-2837,-91,621,-3999,-206,1077
0.001332,-2893,-42,689,-3541,-11,880
0.002452,-2579,-140,622,-3562,-702,1110
0.002452,-2842,-121,623,-3502,-150,1152
0.002437,-2610,-36,638,-3657,745,1010
0.003532,-2674,-21,669,-3452,175,1171
0.001379,-2658,60,687,-3424,-1277,1985
0.002417,-2897,95,692,-3961,368,206
0.003529,-2516,123,685,-3729,-781,280
0.001336,-2821,189,667,-2984,-29,307
0.003518,-2776,82,661,-3457,547,171
0.001381,-2747,110,686,-3559,-109,1913
0.002438,-2912,30,754,-3936,-255,1362
0.002444,-2568,135,689,-3307,-463,1935
0.001342,-2821,100,681,-3467,309,1874
0.002481,-2530,91,676,-3505,-151,1628
0.003527,-2733,169,753,-3331,800,196
0.001346,-2442,121,745,-3293,-870,947
0.003558,-2871,79,738,-3582,925,308
0.002429,-2413,71,685,-4241,-475,994
0.001335,-2929,218,748,-3890,278,862
0.003542,-2502,226,695,-3737,-1206,1582
0.001344,-2844,206,698,-3304,777,1039
0.003577,-2675,202,791,-3791,-582,937
0.001334,-2732,376,805,-2699,681,919
0.002454,-2490,239,804,-3259,-263,945
0.004620,-2588,195,818,-3211,-212,536
0.001360,-2591,192,797,-3673,-905,-16
0.001335,-2532,322,740,-2674,195,227
0.002428,-2652,163,753,-3519,-724,55
0.001342,-2778,241,774,-3007,-595,827
0.004615,-2731,256,784,-3511,-256,698
0.001355,-2581,304,806,-2923,-1297,2136
0.001326,-3014,267,843,-3521,300,33
0.003555,-2336,299,734,-3178,-1090,962
0.002435,-2835,306,798,-3269,-798,-89
0.002448,-2385,140,772,-3606,-1708,329
0.002437,-3091,274,858,-3695,-233,13
0.001359,-2385,342,847,-3647,-2714,1877
0.002512,-3259,373,886,-3385,-88,497
0.002454,-2434,262,805,-3499,-1475,1201
0.002435,-3170,468,891,-3301,-241,556
0.002455,-2702,439,832,-3518,-1135,850
0.002438,-2935,441,866,-3408,-114,265
0.003530,-2699,439,815,-3856,-1655,1911
0.001352,-3015,486,867,-3814,-386,1164
0.001360,-2739,477,882,-4397,-1480,1011
0.003546,-3003,766,993,-3325,-1010,1029
0.002437,-2873,648,914,-3673,-712,454
0.002432,-2993,696,931,-3204,144,100
0.002433,-2899,683,914,-3103,-768,63
0.002431,-3093,709,891,-2508,818,788
0.002424,-2922,517,828,-3462,147,841
0.001346,-2898,596,857,-2844,1021,1252
0.003533,-2738,705,916,-2692,-90,2014
0.002439,-2846,697,886,-2552,1964,436
0.001349,-2739,689,940,-3141,1067,-694
0.002539,-2652,769,932,-2401,1918,-1440
0.004642,-2482,625,833,-2718,1201,-158
0.000247,-2642,577,839,-2578,2847,-18
0.002471,-2508,468,762,-2330,1429,-880
0.002472,-2549,629,781,-450,3434,-2022
0.003597,-2114,370,760,-1113,2155,-2179
0.001406,-2166,89,731,-1113,3137,-2113
0.001449,-2066,-74,689,-1631,2934,-1248
0.003554,-2014,16,758,-1567,4156,-1375
0.001366,-1754,-144,684,-2287,3964,-1558
0.003564,-1636,-114,636,-2578,2830,-2266
0.002479,-1524,-96,585,-2371,3992,-2614
0.001376,-1294,-52,546,-1839,2696,-1546
0.002497,-1761,-238,558,-2076,3199,-2472
0.003728,-1477,-200,531,-1358,3384,-3455
0.001390,-1132,-373,400,-1284,2971,-3419
0.002486,-992,-624,386,-2023,2040,-3337
0.001395,-1386,-765,386,-2858,2598,-4250
0.004645,-776,-688,296,-2044,1308,-1283
0.001368,-1276,-832,264,-2801,1718,-1409
0.001363,-1119,-826,257,-3241,916,-2436
0.003575,-1271,-630,345,-2458,808,-3372
0.001377,-703,-842,291,-2652,-521,-2578
0.003562,-1314,-1064,332,-4018,1006,-2932
0.002458,-872,-981,289,-3994,-1180,-1219
0.001363,-1319,-706,321,-2910,-663,-1372
0.002492,-1180,-844,342,-2571,-1101,-2391
0.001410,-1377,-935,314,-2814,-975,-2892
0.003573,-1531,-873,336,-3238,-1080,-3265
0.002467,-1222,-904,391,-3321,-1448,-2027
0.001373,-1311,-1190,352,-4484,-4133,1464
0.003588,-2028,-1038,550,-4939,-1651,-76
0.003561,-1305,-661,567,-4353,-2465,-1390
0.000265,-1711,-433,660,-3054,-2347,-395
0.003586,-2046,-733,650,-3837,-2476,-895
0.001373,-1888,-711,641,-4144,-1973,-1588
0.003547,-1816,-420,725,-3227,-2532,302
0.002459,-1771,-700,686,-3443,-3327,2801
0.001364,-2454,-799,750,-5310,-3448,-392
0.002463,-2328,-343,804,-4217,-1341,-2380
0.001389,-2010,-228,813,-3139,-3445,470
0.003551,-2549,-641,799,-4154,-3952,1143
0.002459,-2874,-524,813,-4142,-1481,232
0.001448,-2567,-230,871,-3215,-2094,-296
0.003615,-2565,-455,835,-3222,-2729,1364
0.002475,-2855,-851,852,-5778,-1983,728
0.001372,-2834,-502,895,-5918,-1225,647
0.003591,-2920,-25,1008,-4631,-3414,2411
0.001411,-3098,-99,1010,-4328,-1244,1529
0.003555,-2935,-316,1013,-5457,-1030,783
0.002487,-3073,-32,1046,-4551,-1055,-883
0.001364,-2715,104,1047,-3875,-3231,1593
0.002453,-3473,-221,974,-4902,1310,1502
0.001425,-2966,-356,994,-6579,-1623,2117
0.003582,-3514,237,1076,-3991,-244,1528
0.002449,-2682,160,969,-4119,-607,1189
0.001344,-3060,-28,942,-4488,861,1008
0.002831,-3065,75,1003,-4729,-1423,403
0.002519,-3149,423,1075,-2176,1212,234
0.002432,-2734,45,974,-3717,-73,2268
0.002470,-3075,-180,984,-4766,677,2704
0.001398,-2851,172,1041,-4447,32,1827
0.004695,-2768,485,1109,-2625,618,879
0.001355,-2892,230,1077,-3695,513,-665
0.001391,-2426,242,999,-2650,444,72
0.003554,-2585,271,1044,-2233,-927,531
0.002448,-2701,182,1011,-1444,456,1572
0.001345,-2893,-103,1004,-3567,62,714
0.002458,-2313,-63,1009,-2720,694,886
0.002469,-2349,75,1072,-2798,-1249,1205
0.002456,-2325,74,1069,-2193,991,1579
0.002474,-2485,-57,1058,-3777,-673,721
0.002464,-2165,25,1014,-2476,-1421,52
0.002447,-2353,9,1084,-2091,-809,-1057
0.002462,-1968,-235,959,-2497,-1220,1196
0.002512,-2808,-341,979,-3819,-1709,330
0.002474,-2221,-180,1034,-3248,-1333,424
0.001360,-2558,-61,1057,-3038,-526,-308
0.002520,-2067,-298,961,-3349,-2606,1573
0.003547,-2890,-257,1066,-3696,301,-854
0.001402,-1831,-135,1021,-2915,-1686,100
0.002474,-2599,-102,1064,-2425,-1361,391
0.001547,-2246,-434,967,-3495,-2158,767
0.003560,-2708,-367,954,-4056,925,-1581
0.002465,-1915,-219,977,-3485,-3101,1466
0.001380,-2957,-152,1038,-3907,-214,110
0.003562,-2277,-220,967,-4500,-599,-267
0.002447,-2457,-16,983,-3762,-810,-547
0.001367,-2352,47,966,-3321,-3040,964
0.003546,-2657,-54,945,-3274,-46,-812
0.001367,-2248,-125,931,-3742,-1502,-220
0.002450,-2733,8,959,-3065,-1083,-451
0.002526,-2373,-116,914,-3583,-1976,-264
0.002443,-2721,-88,897,-3248,671,-1478
0.003543,-2418,-8,916,-3405,-3161,-144
0.001364,-2822,52,933,-2337,-274,-523
0.003561,-2471,-235,828,-3248,-2078,-302
0.001363,-2888,-170,857,-3021,-758,-1849
0.001356,-2643,-16,853,-2728,-1567,-261
0.003533,-2721,-117,855,-3017,-729,731
0.002454,-2882,-281,877,-4370,-1365,865
0.002441,-2937,40,886,-3479,-214,-400
0.002450,-2602,69,821,-2673,-1888,-387
0.001339,-2907,-37,790,-2759,5,-1561
0.003567,-2849,-127,822,-3545,-1925,-1214
0.001484,-3022,52,868,-2421,-263,-1268
0.002559,-2879,-217,785,-2871,-2045,1214
0.002466,-3258,-332,752,-3681,826,348
0.002461,-2783,-241,714,-4061,-1001,1430
0.003547,-3050,63,875,-3092,390,439
0.001378,-2855,-66,772,-3306,-148,258
0.002432,-3030,-49,788,-3291,38,-352
0.002439,-2993,44,820,-2828,-551,-370
0.001400,-3055,36,804,-1871,316,-299
0.004647,-2826,-267,788,-2885,270,-553
0.001353,-2954,-245,827,-3122,604,-168
0.001400,-2754,-216,794,-3224,-629,1478
0.003545,-3062,-171,790,-3160,1508,1239
0.001344,-2858,-117,789,-3628,725,206
0.002418,-2772,33,797,-2672,672,-736
0.003541,-2667,-119,813,-2774,-332,-64
0.001349,-2819,-278,799,-3444,955,2
0.003530,-2794,-272,834,-4081,86,914
0.001389,-2857,-107,821,-3143,1074,1293
0.002432,-2509,-246,800,-4057,24,974
0.002454,-2701,-215,750,-4002,1317,-140
0.004640,-2556,-38,798,-3678,-120,24
0.001349,-2825,159,856,-2349,1426,134
0.001339,-2553,-37,855,-2955,604,794
0.001371,-2583,-166,825,-3283,1003,1204
0.004631,-2479,-111,853,-3502,223,649
0.001336,-2433,31,808,-3200,1152,673
0.001337,-2535,-80,797,-4226,397,313
0.003504,-2521,12,807,-3787,123,1
0.001347,-2486,-10,753,-3115,886,-373
0.003522,-2321,-83,719,-2834,268,986
0.001346,-2734,-125,782,-3300,415,331
0.002465,-2332,-43,784,-2962,945,839
0.003536,-2312,-67,811,-3107,375,1759
0.001352,-2311,-184,771,-3298,1467,595
0.003541,-2329,-21,764,-3897,-356,-971
0.001356,-2373,253,853,-2594,788,-1430
0.002467,-1881,-190,740,-2970,-769,1082
0.002438,-2717,-373,726,-3811,829,262
0.002453,-2425,43,731,-3037,207,1186
0.001429,-2511,167,804,-2504,1605,208
0.003745,-1840,-275,699,-3250,381,993
0.002397,-2407,-208,707,-4274,262,286
0.002382,-2125,96,735,-3514,976,294
0.001293,-2301,80,702,-3331,870,331
0.003486,-2338,-107,707,-3997,431,-369
0.002407,-2191,30,673,-3728,-241,1
0.001312,-2188,53,679,-3441,-39,451
0.003490,-2292,-12,635,-3276,1497,1259
0.002411,-2431,-53,614,-4441,-333,908
0.001301,-2260,275,667,-3484,2081,-9
0.003510,-1814,59,578,-3593,717,696
0.002390,-2163,10,540,-3889,658,1025
0.001293,-2253,107,554,-3792,386,93
0.002428,-2125,338,588,-3140,1530,-676
0.003479,-1931,112,538,-3132,825,915
0.001347,-2186,97,551,-4194,-409,1104
0.003453,-2117,245,550,-3632,972,-409
0.001315,-1885,306,489,-2921,1573,-355
0.002396,-1929,131,438,-2791,-601,702
0.003485,-2297,168,518,-3181,985,-948
0.002444,-1787,301,511,-2416,694,-242
0.001300,-1804,128,446,-2702,184,951
0.002424,-2025,-107,407,-3755,-1328,510
0.003514,-2262,234,492,-3141,1470,-1750
0.001320,-1646,261,447,-2579,-219,-1208
0.001314,-2004,-26,398,-2953,-697,-800
0.003503,-2116,-147,379,-3442,-568,-1185
0.002397,-2069,87,424,-2423,394,-1590
0.003481,-1966,0,445,-2240,-746,-673
0.001326,-2134,-224,388,-2733,-1088,-540
0.002414,-2115,-245,416,-3410,-747,-1557
0.003503,-1980,-178,398,-3016,-940,-1474
0.001332,-2201,-219,425,-3365,-1476,-1418
0.002414,-2317,-218,439,-3211,-997,-1883
0.002420,-2198,-231,414,-3137,-1337,-1959
0.002423,-2223,-335,428,-3000,-1258,-1659
0.003505,-2308,-428,445,-3039,-1686,-773
0.001324,-2407,-313,467,-2858,-869,-1198
0.001339,-2345,-266,480,-2889,-117,-1569
0.002414,-2236,-405,444,-3658,-1342,-986
0.003501,-2342,-365,465,-3609,-1489,-945
0.002453,-2405,-255,439,-3166,-1417,-1168
0.002433,-2527,-130,501,-3084,-297,-1205
0.001395,-2326,-312,493,-3330,-2083,-1238
0.003554,-2465,-347,515,-3109,-1594,-1392
0.003551,-2461,-367,453,-3140,-1052,-1766
0.001365,-2544,-474,406,-3701,-664,-1128
0.001362,-2519,-481,407,-3278,-1692,78
0.003542,-2609,-494,398,-3724,-1118,-558
0.002455,-2489,-458,397,-3376,-1045,-515
0.001356,-2610,-418,396,-3644,-963,-165
0.001369,-2658,-326,449,-3208,-1765,255
0.003535,-2830,-300,452,-3238,-82,-534
0.002439,-2413,-381,376,-3374,-394,554
0.003537,-2667,-370,360,-4086,-1159,-1
0.001364,-2579,-306,350,-3587,-1082,-203
0.001350,-2691,-381,322,-4243,88,-1034
0.002495,-2333,-340,359,-4267,-2025,910
0.003543,-2926,-228,412,-4128,-2035,878
0.002443,-2842,-204,375,-3446,185,-203
0.001349,-2536,-255,321,-3892,-375,309
0.002457,-2676,-341,325,-4030,-1378,1031
0.003528,-2736,-269,329,-3775,-77,836
0.001343,-2533,-154,370,-4036,404,154
0.002463,-2368,-142,289,-3730,-1460,1035
0.002452,-2765,-203,276,-3853,-1564,212
0.002434,-2505,-178,295,-3535,98,-852
0.003547,-2576,-220,290,-4272,-1083,-208
0.001398,-2686,-189,269,-3675,-1746,1025
0.002448,-2736,-251,298,-3902,-662,23
0.002445,-2545,-171,256,-3535,656,-356
0.002450,-2550,-125,242,-3782,-2275,689
0.002443,-2612,-136,256,-2823,-969,901
0.001341,-2537,-291,284,-3557,588,108
0.003543,-2351,-268,239,-3452,-1335,918
0.002457,-2836,-115,272,-3470,-1211,-234
0.002449,-2399,-94,261,-3331,-518,-1008
0.002456,-2410,-332,218,-4243,-1079,-530
0.002449,-2658,-285,199,-3789,-3138,726
0.001355,-2995,-106,279,-3429,-544,-892
0.003544,-2500,-189,292,-3032,-265,-628
0.001363,-2566,-358,253,-3840,-2014,1707
0.002450,-2661,-343,254,-3650,-679,1506
0.003536,-2552,-191,280,-3881,-311,671
0.001357,-2676,-74,274,-3055,-600,-22
0.002490,-2647,-143,286,-3948,-2605,-901
0.003649,-2569,-134,280,-3198,-369,-1398
0.001383,-2592,-294,288,-4094,-2444,380
0.002493,-3148,-273,297,-3575,-1525,1161
0.001354,-3059,-204,319,-4030,-606,447
0.003506,-2423,-86,272,-3176,-50,1798
0.002471,-2736,-262,283,-4313,-1886,2510
0.001351,-2905,-66,349,-3916,-1112,715
0.003519,-2788,120,345,-3796,54,-998
0.001348,-2478,-15,304,-3200,-2017,761
0.002495,-3086,-260,282,-4510,-1447,610
0.003533,-2947,-76,356,-4163,-118,295
0.001347,-2873,145,348,-3927,-432,1124
0.003533,-2924,109,351,-3717,-953,1990
0.002445,-2989,86,385,-4403,-1055,1574
0.001337,-2833,163,341,-4002,755,643
0.002451,-2619,100,284,-3984,-1701,1572
0.001377,-3089,146,352,-4271,-1275,1019
0.003524,-3027,185,393,-4420,354,284
0.002453,-2624,227,340,-3982,-1813,1671
0.001410,-3145,236,372,-3827,-905,1958
0.004664,-2940,148,340,-4116,528,695
0.001342,-2848,315,342,-4127,170,223
0.002486,-2793,401,297,-3073,-1966,2270
0.001348,-3171,309,393,-4061,459,1073
0.003536,-2770,312,321,-3934,245,1379
0.002491,-2903,442,305,-3728,-1562,1940
0.001526,-3069,422,349,-3228,-540,1607
0.001387,-2799,267,324,-4592,924,318
0.003551,-2814,437,325,-4281,-1322,1173
0.002447,-3057,630,397,-3618,-1017,244
0.001345,-2968,511,287,-3433,-113,144
0.003573,-2914,344,261,-3978,-242,667
0.002448,-2953,427,354,-4105,-1812,1637
0.002449,-3003,561,329,-3418,-308,2366
0.001380,-2773,456,336,-4498,-723,2211
0.002445,-3208,625,395,-4388,-1157,608
0.002461,-2811,699,407,-3897,-1422,-1102
0.002459,-2927,640,399,-3332,-1802,-165
0.003542,-3185,425,364,-4008,-1159,277
0.001345,-3324,509,405,-3612,-523,587
0.002448,-3090,667,384,-2942,-669,2257
0.003549,-3116,580,386,-3675,-571,2137
0.001369,-3072,620,303,-4239,-324,496
0.001354,-2998,855,388,-3337,-933,-801
0.003571,-3055,843,412,-3083,-1475,185
0.002460,-3359,534,439,-4069,-487,-68
0.002433,-3327,565,427,-3816,251,-92
0.001356,-3117,749,468,-2988,-252,1217
0.003525,-3152,652,470,-3101,506,1797
0.002448,-3283,634,463,-3581,849,654
0.001353,-3121,828,507,-2740,1889,-871
0.003544,-2858,772,420,-2565,145,-818
0.002446,-2918,532,416,-3084,830,-1096
0.001362,-3002,435,438,-3421,615,-994
0.004625,-3075,599,437,-2966,1271,-663
0.001339,-3063,477,402,-3287,1449,577
0.001344,-3202,394,375,-2462,3487,-97
0.002499,-2523,494,354,-2526,2981,-1495
0.002461,-2787,681,379,-1034,4356,-2301
0.003539,-1960,393,302,-1734,1846,-873
0.001352,-2709,131,286,-1963,3157,-1558
0.002453,-2320,151,320,-1830,5054,-2413
0.002522,-1920,143,205,-1823,3905,-1948
0.001345,-1866,4,209,-2189,4451,-1016
0.004666,-1882,-118,183,-3219,4153,-1998
0.001358,-1825,101,185,-2634,5733,-3213
0.001342,-1148,48,90,-2049,3973,-1110
0.002443,-1756,-168,7,-2979,4548,-1958
0.003550,-1284,-215,-77,-2921,4902,-2487
0.001370,-1233,-191,-143,-2269,3970,-2014
0.002465,-1073,-332,-179,-2567,3619,-2060
0.002514,-1087,-423,-209,-2999,3628,-1977
0.003545,-928,-330,-266,-2553,3408,-572
0.001354,-842,-318,-191,-2632,2256,-502
0.002451,-905,-477,-213,-3112,3234,-2527
0.002472,-609,-464,-316,-3251,1897,-2135
0.001355,-676,-435,-318,-2873,1435,-634
0.004660,-941,-567,-305,-3532,2044,-188
0.001362,-706,-508,-326,-4215,1934,-1496
0.001369,-606,-409,-331,-3554,1198,-833
0.003551,-595,-486,-395,-4144,-1829,-295
0.002456,-878,-585,-415,-4549,1639,-1882
0.001363,-679,-403,-317,-4930,-1967,-979
0.003610,-1123,-142,-299,-3410,-771,-153
0.001373,-810,-471,-344,-4225,-2171,395
0.005757,-1164,-511,-316,-5050,-362,-1604
0.000278,-894,-254,-211,-4236,-3580,-1054
0.001372,-1126,-131,-171,-3493,-3497,-341
0.002460,-1234,-544,-214,-4554,-3145,217
0.001374,-1849,-467,-75,-5084,-2997,-1494
0.004647,-1218,-31,3,-3296,-2708,-450
0.001353,-1338,-262,4,-3141,-3270,1641
0.001362,-2095,-507,57,-4925,-1701,-723
0.003557,-1816,-23,179,-4105,-2276,-2237
0.001345,-1329,174,200,-2962,-4096,44
0.002454,-1916,-305,168,-4282,-4723,297
0.003556,-2301,-273,218,-5068,-3259,-782
0.001358,-2489,245,293,-3489,-3822,-846
0.003595,-2305,167,283,-3067,-3186,-354
0.002486,-2565,-168,295,-3679,-3682,462
0.001377,-2782,-209,346,-3833,-2359,-1038
0.002512,-2530,-21,381,-2555,-2076,-1279
0.001392,-2830,-228,382,-3024,-3958,-633
0.004647,-3009,-344,424,-3329,-2145,-536
0.001380,-2980,-362,423,-4283,-1720,-613
0.001388,-2871,-256,415,-4157,-2144,1168
0.003555,-3453,-290,456,-4284,-1644,1994
0.001355,-3145,-273,480,-4310,-249,981
0.002505,-3050,-120,474,-4699,-80,-398
0.003549,-2950,49,456,-4235,-1897,120
0.001359,-3211,-118,458,-4717,-936,-581
0.003544,-3011,-208,432,-4530,-879,1341
0.001451,-3289,-169,437,-5096,435,2364
0.002447,-3221,-143,381,-4806,557,1586
0.002440,-2927,26,401,-4323,1092,-540
0.001338,-2801,85,418,-4514,-608,358
0.004614,-2894,3,369,-4893,1570,143
0.001345,-2590,14,336,-4922,-353,1877
0.001352,-3141,220,368,-3843,-294,2624
0.002435,-2563,24,298,-5122,1315,551
0.003519,-2274,105,302,-5124,813,914
0.001360,-2548,249,406,-4671,-2230,1884
0.002433,-2748,388,395,-4023,459,560
0.003546,-2488,288,348,-4583,3049,-1584
0.002422,-1776,254,247,-3488,-3743,2050
0.001306,-3164,252,354,-3479,-1542,-255
0.001394,-1986,201,212,-3090,3195,-384
0.004596,-2027,159,242,-4177,-1864,4125
0.001654,-2750,342,318,-3628,-1800,3841
0.002438,-2340,458,326,-3347,1865,-1041
0.002410,-1588,510,233,-2150,-260,-1494
0.002409,-1840,438,261,-1891,-4097,1359
0.002439,-2571,73,223,-3475,196,531
0.002421,-2227,46,130,-3520,-784,1171
0.001321,-2334,252,195,-2988,-1807,-335
0.003484,-2168,305,164,-2555,-875,-53
0.002410,-1768,-2,85,-3404,-590,1282
0.002411,-2117,-54,137,-4051,-2196,2667
0.001307,-2589,337,202,-2977,-1087,61
0.002451,-1827,343,115,-2385,-896,-940
0.003508,-1995,161,109,-3347,-1547,-118
0.001308,-2076,-96,74,-4290,-3144,480
0.004595,-2640,144,147,-3638,-970,-239
0.001299,-2145,206,46,-3181,-849,6
0.001308,-2409,44,-5,-3622,-1620,-128
0.002454,-2204,-15,-18,-3514,-3015,-261
0.003523,-2290,95,-32,-3039,-1578,-561
0.001373,-2294,119,-39,-3089,-2890,703
0.003608,-2887,-67,-88,-3611,-1645,-877
0.002419,-2523,23,-70,-3362,-1098,-1485
0.002417,-2451,-70,-116,-3968,-2340,-900
0.001379,-2574,-150,-169,-4243,-1713,-52
0.002442,-2780,-20,-132,-4486,-1634,-162
0.002410,-2691,252,-124,-3319,-1983,547
0.001332,-2909,163,-133,-3724,-425,-672
0.004606,-2519,-13,-181,-3778,-1014,-898
0.001327,-2700,80,-198,-4070,-2222,-659
0.002412,-2851,196,-192,-3106,-596,-66
0.002436,-2936,-22,-213,-4021,-1077,11
0.001315,-3067,36,-248,-3555,-181,-623
0.003499,-2647,202,-223,-3379,-1401,-79
0.002405,-2804,132,-218,-3233,-718,219
0.001334,-2943,67,-233,-3713,-1319,-55
0.003569,-3042,194,-188,-3157,357,-588
0.002406,-2824,178,-214,-3538,-772,656
0.001313,-2929,-5,-234,-4036,-22,414
0.003566,-2765,129,-213,-4181,-913,37
0.001404,-2779,238,-237,-3908,-847,120
0.003560,-2960,200,-222,-3905,-859,-13
0.002468,-3199,133,-257,-3703,55,-1785
0.001417,-2972,283,-206,-2722,-565,-808
0.002431,-3076,217,-254,-2815,-2,992
0.002479,-2995,-109,-303,-3728,717,1989
0.002440,-2882,50,-277,-3638,631,1664
0.002470,-2887,282,-241,-3275,-440,1398
0.001358,-2781,340,-247,-2736,1013,-123
0.003566,-2656,214,-236,-3486,-847,-786
0.002451,-3114,256,-190,-2970,303,-1236
0.001349,-2610,93,-324,-3067,116,-7
0.002438,-3004,49,-284,-3519,1031,469
0.003512,-2763,5,-234,-3791,501,813
0.002446,-2930,140,-218,-3730,1156,506
0.001369,-2297,87,-282,-3529,1231,1077
0.002438,-2701,-39,-275,-4287,798,875
0.003523,-2674,53,-210,-4066,886,376
0.001351,-2431,223,-238,-3789,882,1086
0.001366,-2702,163,-239,-3823,986,522
0.004626,-2397,204,-195,-3785,520,329
0.001362,-2491,216,-192,-3408,342,1334
0.002506,-2410,168,-248,-3439,1772,264
0.002476,-2408,131,-219,-3626,565,-278
0.002440,-2124,234,-244,-3054,811,160
0.002447,-2025,130,-231,-3771,-484,961
0.001348,-2422,77,-211,-3885,778,-306
0.004623,-2221,194,-227,-3296,581,12
0.001348,-2217,167,-200,-3394,624,222
0.001339,-2143,31,-206,-3978,448,864
0.003622,-2225,126,-180,-3752,774,622
0.002451,-2159,306,-176,-2995,1188,703
0.001343,-2263,242,-200,-3232,848,464
0.002435,-2078,187,-220,-3681,854,138
0.003556,-1872,219,-207,-3264,511,1151
0.002445,-2047,188,-190,-3847,785,1832
0.001343,-2240,197,-163,-4283,709,560
0.001345,-2026,427,-160,-3359,743,148
0.004658,-1693,323,-168,-3193,825,557
0.001346,-2002,109,-219,-4274,607,709
0.002442,-2068,330,-157,-3617,805,512
0.001374,-1877,395,-156,-2634,1503,308
0.003608,-1586,251,-237,-3117,578,1588
0.002587,-1958,133,-238,-4044,496,345
0.001357,-1806,389,-242,-3402,121,257
0.003602,-1935,403,-251,-3098,1741,-826
0.002469,-1501,250,-296,-3471,496,490
0.001347,-2072,326,-245,-3680,413,253
0.002464,-1773,358,-304,-2966,1187,435
0.003544,-1772,253,-364,-3477,1387,-87
0.001350,-1595,236,-354,-3995,1144,227
0.002446,-1622,317,-319,-3821,-883,1071
0.002464,-1750,308,-382,-3700,344,-573
0.003551,-1816,319,-350,-3606,603,-1715
0.001373,-1801,347,-394,-3319,-811,-1491
0.002466,-1727,228,-400,-3124,-1418,-472
0.002442,-1840,112,-439,-2712,250,209
0.001354,-1885,91,-414,-3294,-427,-813
0.004899,-1893,215,-354,-2390,111,-2355
0.001377,-1618,185,-416,-2530,-1552,-1807
0.001416,-1896,-40,-449,-2805,-1215,-1568
0.002467,-2036,-99,-455,-3286,-886,-1306
0.002475,-1996,140,-418,-2708,-1025,-1373
0.002503,-1918,160,-367,-2442,-1591,-203
0.002487,-2131,-27,-383,-3123,-1342,-1075
0.001500,-1932,-130,-371,-3441,131,-2786
0.003677,-1843,87,-358,-3087,-2188,-1971
0.001358,-2168,9,-352,-2769,-1844,-1954
0.002484,-2206,-192,-360,-3031,-1758,-2501
0.003582,-2160,-282,-389,-3246,-1256,-2673
0.001457,-2361,-237,-356,-2726,-2512,-1579
0.002478,-2364,-342,-389,-2672,-1891,-1014
0.002603,-2599,-452,-353,-3831,-1064,-1811
0.002496,-2229,-401,-403,-3628,-826,-1327
0.002469,-2351,-390,-369,-3628,-2379,-349
0.001372,-2518,-437,-389,-3743,-1665,-924
0.004736,-2557,-305,-381,-3892,-530,-1414
0.001381,-2402,-186,-348,-3262,-2080,-314
0.001373,-2508,-315,-371,-3385,-1357,-246
0.002523,-2734,-325,-377,-4000,-1367,-1146
0.002512,-2560,-113,-326,-3462,-15,-1290
0.002450,-2361,-186,-386,-3100,-1280,29
0.002497,-2754,-340,-416,-3894,-1484,1
0.002579,-2715,-299,-348,-3900,-383,-1114
0.002500,-2449,-123,-352,-3350,148,-837
0.001410,-2376,-263,-416,-3516,-1435,1189
0.002708,-2843,-418,-483,-4614,-1529,1559
0.002614,-2676,-105,-375,-4246,617,-713
0.002473,-2252,-35,-419,-3312,-538,-247
0.001375,-2561,-185,-470,-3726,-1948,819
0.003588,-2741,-301,-519,-4322,-213,379
0.002463,-2407,-90,-459,-3770,682,446
0.002506,-2238,-92,-526,-3593,-1297,1519
0.001359,-2555,-101,-476,-4035,-884,708
0.002521,-2424,-120,-561,-4282,593,-1073
0.003560,-2201,21,-533,-3898,-1267,-192
0.001367,-2549,-58,-569,-3830,-1452,1070
0.002455,-2454,-148,-607,-4386,-765,496
0.002469,-2250,-61,-627,-3796,-1231,224
0.002501,-2407,-4,-607,-3350,-1395,1054
0.002509,-2478,-131,-599,-4204,-1449,663
0.001471,-2308,-65,-609,-4290,-526,-193
0.002508,-2229,-17,-599,-3510,-1401,22
0.003574,-2394,-103,-650,-3644,-1676,594
0.001386,-2487,-147,-678,-3932,-1560,31
0.003534,-2422,-13,-630,-3974,-1436,-523
0.002587,-2305,61,-666,-2876,-1620,-59
0.001368,-2463,-137,-659,-3917,-2326,-30
0.003605,-2728,-120,-631,-3480,-567,-241
0.001379,-2397,-167,-637,-3759,-1474,483
0.002470,-2433,-115,-675,-3136,-1089,1610
0.001422,-2489,-113,-680,-4316,-2177,1177
0.003545,-2524,87,-642,-3555,-765,128
0.002455,-2455,28,-660,-3877,-2011,-429
0.001366,-2487,-46,-652,-3593,-2102,-307
0.001396,-2721,-125,-609,-3961,-1102,-767
0.004684,-2597,-158,-637,-3657,-1396,201
0.001437,-2812,-101,-605,-4026,-1970,1013
0.002510,-2687,-5,-617,-3708,-881,1302
0.002452,-2543,24,-591,-3818,-1215,1849
0.002459,-2702,-53,-615,-4033,-1763,1676
0.002445,-2740,82,-612,-4137,-1550,523
0.002451,-2726,201,-553,-3708,-575,-356
0.002452,-2563,97,-626,-3609,-2272,1011
0.001350,-2981,57,-583,-4088,-1804,545
0.003518,-2862,73,-623,-3984,-769,-23
0.002459,-2726,140,-570,-3732,-1089,843
0.001359,-2848,83,-554,-4106,-1667,2477
0.001405,-3038,203,-516,-4433,-570,1307
0.004625,-2793,328,-508,-3623,157,689
0.001365,-2657,270,-561,-3630,-2064,1757
0.003539,-3146,191,-542,-4463,-944,772
0.001394,-2779,254,-564,-4256,-166,-163
0.002457,-2833,420,-538,-3426,-1434,1145
0.002498,-3058,297,-536,-3772,-1157,1819
0.002449,-3055,246,-495,-4665,193,883
0.002453,-2751,409,-491,-3962,-331,1982
0.004669,-2854,487,-456,-3266,-832,2064
0.000247,-2943,278,-524,-4231,454,786
0.002445,-2874,370,-558,-4360,621,-471
0.001357,-2641,472,-539,-4374,-1205,617
0.002498,-2875,467,-525,-4086,-543,1744
0.003551,-2919,332,-520,-5020,-1224,1880
0.001343,-3076,667,-445,-3670,99,1021
0.002446,-2706,717,-446,-3208,-472,771
0.003599,-2816,514,-478,-3587,-461,1234
0.001354,-2897,419,-516,-4456,-805,1142
0.002441,-2783,738,-473,-3610,-456,888
0.002473,-2866,777,-464,-3289,-1125,1442
0.003539,-2945,559,-499,-4043,-1549,304
0.001373,-2987,602,-458,-3650,-499,-263
0.002448,-2634,702,-468,-2718,-1342,845
0.002504,-3164,567,-478,-3147,-1156,1071
0.001350,-3070,545,-489,-3437,-244,377
0.003534,-2731,621,-510,-3153,-618,703
0.002473,-2717,569,-537,-3391,-1754,1511
0.001358,-3094,523,-484,-4333,-1015,400
0.003540,-3004,716,-458,-4008,-859,363
0.001355,-3012,745,-460,-3411,-1276,604
0.002463,-3101,636,-479,-3967,-502,763
0.003546,-3084,603,-465,-4201,-346,-154
0.001351,-3045,838,-434,-3451,-368,600
0.002431,-3034,715,-474,-3479,0,1579
0.003539,-2986,609,-480,-4417,-55,1555
0.001351,-2978,765,-414,-3657,-162,954
0.002434,-2978,937,-395,-3068,191,390
0.001333,-2846,830,-439,-3263,-62,84
0.003545,-2952,676,-465,-3915,-791,-1544
0.002476,-3310,929,-389,-1433,2611,-442
0.003554,-2656,646,-512,-2176,1731,393
0.001353,-2735,321,-604,-4343,1740,495
0.002487,-3146,706,-453,-3879,-2544,1165
0.001414,-2782,829,-527,-1310,7492,-3558
0.003542,-1820,374,-710,-2898,2001,2073
0.001414,-3616,380,-575,-5122,-331,1548
0.003566,-2812,697,-523,-2211,8890,-4565
0.002465,-1061,797,-597,-1637,193,752
0.001360,-2668,226,-653,-3394,-514,1262
0.002464,-2712,286,-632,-3274,7125,-4095
0.001379,-1419,550,-670,-1675,8763,-6632
0.003552,-1331,457,-773,-560,-5051,4067
0.002470,-3193,-128,-646,-3174,7133,-2919
0.001374,-541,-292,-846,-4332,8643,-5667
0.003568,-1353,382,-779,-1490,-3406,2253
0.002463,-2134,254,-850,-1719,5452,-1097
0.001385,-697,-433,-1018,-4696,7454,-4648
0.003613,-1198,160,-910,-3083,-1222,-1720
0.001359,-1560,440,-931,-881,3943,-3448
0.003566,-474,-365,-1072,-3367,4004,-4362
0.002484,-1389,-397,-1018,-3834,955,-3149
0.001687,-981,147,-1063,-1119,830,-1463
0.002511,-807,-280,-1173,-1937,3169,-2290
0.001374,-1001,-794,-1233,-3856,835,-3079
0.002542,-1067,-253,-1123,-2538,-576,-3530
0.003580,-751,-188,-1185,-1029,1133,-1733
0.001381,-1000,-759,-1201,-3560,-521,-1884
0.002477,-1252,-756,-1158,-3864,-572,-3277
0.002544,-771,-350,-1115,-2120,-2018,-1509
0.002480,-1027,-670,-1145,-3156,-981,-1462
0.003615,-1308,-969,-1125,-5059,-2304,-2461
0.002498,-1318,-394,-1021,-3249,-318,-2836
0.001371,-665,-390,-1064,-2545,-3636,1014
0.001395,-2089,-831,-952,-4266,-1579,-1449
0.002477,-1252,-575,-984,-4358,-2287,-2792
0.003586,-1368,-237,-892,-2728,-1542,-1063
0.001375,-1065,-673,-939,-4436,-5127,2490
0.001374,-2468,-724,-846,-5981,-2280,-688
0.004696,-1516,-36,-819,-3906,-2323,-1234
0.001361,-1765,114,-740,-2504,-3185,135
0.002489,-1939,-476,-747,-4580,-4146,-197
0.002479,-2403,-401,-680,-5081,-1292,-2528
0.002483,-1965,-38,-634,-3192,-3533,-821
0.002465,-2356,-287,-675,-3486,-4218,1322
0.001483,-2808,-639,-686,-5454,-1165,-556
0.003565,-2147,-270,-670,-4864,-2692,581
0.001364,-2673,-17,-576,-3994,-3464,1692
0.002552,-2788,-274,-591,-4597,-2283,2202
0.003588,-3072,-269,-519,-5572,-1281,330
0.001369,-2652,122,-494,-3722,-1450,535
0.001359,-2627,61,-539,-4131,-2278,1315
0.002553,-2965,-106,-521,-4801,-1337,1429
0.003561,-3007,6,-462,-5108,-1805,383
0.002448,-2833,327,-452,-3823,-761,1357
0.001374,-2958,86,-508,-4160,-1041,2598
0.003608,-3094,-35,-509,-5048,-1332,1711
0.002449,-3160,291,-468,-4154,551,-246
0.001389,-2574,311,-570,-3469,-490,1089
0.002512,-3102,22,-596,-4128,-554,1982
0.003570,-2975,89,-572,-4707,-113,1812
0.001352,-2755,267,-550,-3854,614,2621
0.003568,-2602,309,-492,-3770,-642,2840
0.001370,-2915,250,-488,-3756,605,396
0.001352,-2616,313,-479,-3515,743,-997
0.003547,-2315,277,-546,-3275,-562,-13
0.002460,-2692,90,-563,-4000,-861,1534
0.002477,-2807,107,-506,-3952,847,1433
0.001357,-2329,151,-557,-3680,893,2487
0.003547,-2372,172,-516,-4210,-871,2448
0.002457,-2327,204,-520,-4454,-341,1102
0.001357,-2185,230,-542,-4486,455,-957
0.003645,-2070,360,-516,-4058,-480,258
0.001366,-2248,238,-516,-4217,-2287,1390
0.002498,-2442,159,-504,-4578,-969,65
0.002468,-2017,204,-518,-4003,610,-1546
0.002459,-1903,176,-562,-4408,-2787,115
0.001369,-2690,186,-444,-4097,-1947,1069
0.003549,-2150,165,-486,-4635,386,1291
0.002449,-2085,213,-512,-4343,199,1479
0.002463,-2023,496,-457,-3641,-3143,1746
0.001356,-2284,520,-412,-3114,-349,-764
0.003560,-1812,350,-507,-3297,-1745,-561
0.002468,-2473,305,-430,-3444,-2489,-1353
0.001369,-2298,441,-390,-2254,-920,-1630
0.003658,-1894,240,-475,-2274,-955,-419
0.001391,-2273,-76,-524,-3512,-2395,1196
0.002460,-2645,138,-443,-3217,-1170,211
0.003561,-1851,328,-469,-2277,-1303,-478
0.001356,-2134,347,-481,-1955,-1568,99
0.001396,-2197,82,-490,-2925,-2923,-298
0.003736,-2391,106,-467,-3146,-1343,-1691
0.002470,-2312,199,-443,-2577,-2092,-877
0.002459,-2455,82,-466,-2878,-1676,-132
0.001365,-2492,48,-389,-3003,-3111,-365
0.002460,-2434,91,-477,-2877,-928,-2306
0.002464,-2443,23,-506,-2206,-2173,-1093
0.002468,-2550,-166,-488,-2921,-3260,-516
0.003556,-2901,-225,-486,-3116,-997,-1020
0.001369,-2518,-173,-498,-3182,-1368,510
0.001368,-2754,-222,-489,-3550,-1578,791
0.003565,-3014,-179,-478,-4294,-1876,-808
0.002452,-2756,46,-486,-3493,-962,-1702
0.001357,-2611,-78,-542,-3196,-882,-166
0.003597,-2930,-321,-528,-4083,-1555,247
0.001362,-3113,-188,-471,-4029,-802,313
0.002418,-2691,-62,-523,-3816,270,-46
0.003549,-2690,-154,-490,-4200,-621,887
0.001372,-3107,-120,-448,-4894,-1209,-375
0.002500,-2983,101,-429,-4121,128,-1172
0.003551,-2715,87,-468,-4134,112,-487
0.002451,-2781,-108,-477,-4563,-1485,820
0.001343,-3335,-40,-407,-4041,-81,601
0.001358,-2796,117,-414,-3612,460,812
0.004678,-2723,84,-453,-3653,934,1143
0.001365,-2610,-13,-448,-4291,-1046,1323
0.001383,-2911,209,-407,-3711,1002,331
0.002460,-2590,230,-450,-3845,-143,386
0.003530,-2800,203,-432,-3842,297,-812
0.002452,-2789,252,-393,-3397,-999,-99
0.001379,-2738,190,-392,-3477,1224,-519
0.002464,-2572,62,-451,-3702,-60,1413
0.003556,-2807,79,-423,-3699,71,2061
0.002475,-2659,170,-355,-3396,919,992
0.001412,-2374,143,-406,-3825,1034,215
0.002495,-2491,57,-446,-4282,-189,301
0.002498,-2572,213,-395,-4354,495,505
0.002476,-2503,247,-421,-4151,-264,1296
0.001371,-2657,261,-440,-3888,775,1220
0.003539,-2445,366,-335,-3404,120,415
0.002459,-2523,364,-278,-3435,986,-219
0.001345,-2264,257,-334,-3487,237,606
0.004685,-2332,192,-372,-3854,879,1217
0.001363,-2309,245,-396,-3297,335,1696
0.001353,-2295,298,-382,-3597,-270,612
0.002495,-2211,305,-361,-3241,587,34
0.002468,-2206,270,-330,-3571,468,-1041
0.003544,-2329,267,-367,-3115,-252,341
0.001338,-2458,278,-332,-3488,698,87
0.001478,-2145,224,-378,-3460,771,681
0.003516,-2191,165,-331,-3466,835,374
0.002455,-1918,201,-413,-3458,-761,1487
0.001357,-2486,232,-327,-3563,1051,-319
0.003539,-1837,192,-371,-3449,762,-681
0.002445,-2204,211,-372,-3272,-141,802
0.002439,-2165,118,-406,-4443,262,984
0.002438,-2313,171,-366,-4457,1251,29
0.001344,-1862,390,-393,-3492,455,885
0.003606,-2169,328,-420,-3603,-601,1216
0.001376,-2247,264,-383,-4015,1630,-409
0.003540,-1763,403,-397,-3383,427,-157
0.001350,-1969,483,-395,-2931,239,1347
0.002450,-2068,263,-454,-4128,-471,1126
0.003561,-2262,311,-408,-4549,2397,-1495
0.001364,-1547,452,-450,-3526,-1224,1092
0.002511,-2284,471,-404,-3724,328,760
0.002461,-1891,327,-478,-4199,651,-179
0.002445,-2012,542,-453,-3128,676,-627
0.002512,-1776,546,-479,-2114,-714,1174
0.002446,-2084,254,-521,-3331,767,-196
0.001350,-1946,304,-521,-3431,365,-660
0.002455,-2009,505,-474,-2776,-74,-1080
0.003547,-1847,331,-537,-3009,-718,-232
0.002446,-2145,93,-592,-3775,-505,-539
0.001357,-2062,287,-539,-3339,-902,-902
0.001353,-2128,405,-498,-2131,-428,-975
0.004642,-1894,128,-542,-3084,-1102,-587
0.001405,-2190,15,-548,-3274,-834,-1204
0.001319,-1970,193,-572,-2848,-559,-1634
0.003572,-2061,156,-533,-2946,-1491,-1212
0.002419,-2312,43,-531,-3550,-1431,-1897
0.003528,-2131,5,-507,-3481,-2434,-1757
0.001322,-2345,36,-496,-3112,-559,-1534
0.001337,-2113,-81,-533,-3463,-2169,83
0.003511,-2657,-41,-474,-3614,-750,-1725
0.002433,-2199,112,-400,-3221,-1372,-2116
0.002423,-2217,30,-450,-3112,-866,-1822
0.002430,-2315,-138,-477,-3631,-2101,-1604
0.001332,-2613,-66,-418,-3361,-1212,-2158
0.002470,-2539,4,-405,-3132,-2050,-1824
0.003526,-2407,-91,-433,-3122,-1150,-1406
0.001339,-2568,-282,-453,-3661,-2058,-1052
0.002481,-2813,-151,-390,-3090,-1515,-1659
0.002439,-2476,-130,-399,-2888,-251,-1587
0.002438,-2451,-330,-448,-3390,-1786,-990
0.002477,-2706,-308,-421,-3496,-1266,-911
0.002440,-2796,-64,-369,-3023,-1693,-1079
0.002417,-2656,-139,-362,-2847,-208,-940
0.002466,-2634,-305,-399,-3249,-2416,-81
0.002415,-2959,-350,-360,-3343,-332,-867
0.002612,-2563,-222,-417,-3196,-1190,-256
0.001347,-2748,-305,-431,-3581,-773,-603
0.003551,-2672,-289,-428,-3800,-953,-369
0.002433,-2748,-269,-421,-3942,-1232,244
0.001332,-2720,-243,-398,-3768,-932,545
0.003497,-2822,-252,-436,-3787,-242,770
0.001328,-2751,-226,-425,-4157,-1005,577
0.004586,-2711,-176,-425,-3825,-887,84
0.001328,-2653,-155,-435,-3869,-445,-606
0.001346,-2698,-125,-392,-3940,-811,715
0.002421,-2753,-184,-449,-4431,-931,1609
0.002416,-2632,-155,-444,-4466,-529,1407
0.003497,-2591,-5,-382,-3667,-49,1242
0.002411,-2586,-23,-413,-3953,-1297,1056
0.001344,-2706,18,-443,-4217,-430,-457
0.002404,-2441,27,-413,-4027,-788,-561
0.003513,-2469,-17,-455,-3661,-973,813
0.001328,-2786,-155,-494,-4490,-1776,511
0.002383,-2679,46,-407,-3957,481,35
0.002428,-2318,15,-420,-3405,-152,739
0.002490,-2367,-26,-458,-3768,-2012,2295
0.002438,-2879,-65,-417,-3968,-255,97
0.001406,-2283,158,-464,-2924,794,-1129
0.003537,-2256,76,-476,-2762,-1468,603
0.002492,-2708,-214,-504,-4405,-2054,-461
0.002458,-2493,-75,-487,-3645,537,-1601
0.003552,-2216,-23,-469,-3235,-2486,381
0.001367,-2923,-113,-418,-3137,-1949,918
0.001365,-2588,-187,-415,-3812,539,-454
0.003543,-2113,-148,-477,-2908,54,-120
0.001371,-2430,-150,-465,-3121,-2524,1028
0.002469,-2627,-143,-464,-3752,210,-1341
0.002451,-2312,-44,-435,-3870,-625,-951
0.003553,-2446,-124,-465,-3106,-2475,357
0.001412,-2710,-165,-426,-3698,-1782,9
0.002459,-2553,-159,-425,-3676,833,-1437
0.002452,-2403,-195,-427,-3833,-2068,39
0.001364,-2738,-196,-465,-3435,-1143,610
0.004655,-2517,-280,-470,-4386,-248,28
0.001361,-2473,-146,-430,-3591,-450,365
0.001360,-2539,-88,-432,-3707,-2407,777
0.003556,-2768,-102,-413,-3446,305,-721
0.002468,-2435,-113,-398,-4119,-889,-257
0.001363,-2654,-85,-383,-3216,-1512,325
0.003570,-2832,-139,-337,-3750,-1185,363
0.001363,-2685,-179,-387,-3895,672,-387
0.003555,-2569,-184,-410,-4338,-1862,998
0.002485,-2756,-38,-368,-3282,-649,1323
0.001371,-2674,-45,-343,-3922,-246,666
0.002439,-2677,-60,-368,-3487,-56,355
0.001358,-2867,-19,-335,-3892,-1383,613
0.004622,-2695,-27,-330,-3749,395,742
0.001385,-2654,-161,-324,-4952,-496,1470
0.001355,-2733,56,-295,-4115,-835,1885
0.003567,-2783,163,-327,-4015,-194,984
0.002433,-2563,94,-323,-3660,475,443
0.001404,-2560,53,-312,-4200,-888,1357
0.004642,-2717,142,-331,-3490,-340,1464
0.001344,-2707,82,-336,-3831,533,1399
0.001344,-2762,46,-346,-4195,773,1093
0.002547,-2598,29,-346,-4789,-559,1283
0.002449,-2550,245,-339,-4088,380,1304
0.002448,-2410,203,-362,-4251,-637,1942
0.002465,-2793,268,-311,-3722,-516,1239
0.002682,-2759,350,-317,-3646,-486,378
0.002409,-2327,323,-338,-3374,211,547
0.001320,-2484,160,-346,-4141,-944,2738
0.002409,-2776,198,-312,-4607,48,1631
0.003497,-2596,452,-331,-4058,20,597
0.001313,-2347,427,-385,-3407,-771,110
0.002430,-2579,221,-404,-3928,-1091,127
0.003527,-2654,205,-396,-3939,296,-98
0.002415,-2593,341,-378,-3701,-952,771
0.001342,-2775,378,-348,-3167,-439,1702
0.002382,-2562,272,-358,-4124,437,1503
0.003482,-2509,299,-421,-4522,-675,993
0.001364,-2466,447,-419,-3954,-1431,626
0.003497,-2686,334,-457,-4241,-213,-592
0.001314,-2651,328,-379,-4393,-1061,-1
0.003554,-2749,391,-350,-4071,-1639,732
0.002409,-2807,476,-368,-3529,-315,1412
0.001307,-2735,398,-361,-4039,182,682
0.003504,-2646,457,-386,-3945,-1089,1011
0.001316,-2859,491,-435,-3826,-278,494
0.002411,-2399,418,-449,-4315,-226,1048
0.003506,-2884,457,-435,-4728,-1165,1151
0.001319,-2784,645,-376,-3977,-1296,965
0.001390,-2739,727,-378,-3524,-240,1004
0.003511,-2807,599,-367,-4184,-1100,595
0.003493,-3016,681,-366,-4066,-786,-452
0.002401,-2849,785,-381,-3055,542,-412
0.001339,-2543,605,-435,-3954,-552,1713
0.001319,-2993,480,-465,-4507,-157,2577
0.004578,-2742,770,-439,-3943,197,1871
0.001313,-2592,897,-472,-2993,453,1086
0.001309,-2745,710,-474,-3642,-284,104
0.003529,-2761,694,-458,-4282,549,-1427
0.002396,-2591,792,-426,-3696,914,-235
0.003485,-2692,755,-485,-3506,464,949
0.001313,-2853,671,-493,-3693,1420,487
0.001351,-2543,799,-484,-3252,1096,-154
0.003646,-2436,840,-472,-2490,1262,333
0.002396,-2415,560,-563,-3101,473,486
0.002476,-2683,665,-524,-3457,1986,-274
0.002408,-2300,759,-541,-2831,2755,64
0.001314,-2127,638,-602,-3240,1665,194
0.002404,-2324,582,-592,-3059,2525,-951
0.003493,-2090,828,-589,-2488,2124,-3422
0.002458,-1911,747,-610,-763,2456,-4590
0.001325,-1934,401,-604,-1106,-371,-2855
0.002412,-2074,-39,-701,-1719,4779,-4106
0.003493,-1514,-38,-738,-1969,2000,-759
0.002418,-2225,19,-723,-1879,2101,-2646
0.001325,-1403,-67,-851,-1830,1649,-2951
0.002412,-1558,-289,-885,-2557,2004,-3934
0.002411,-1631,-363,-849,-2794,499,-4115
0.003496,-1791,-310,-860,-1985,45,-3459
0.001476,-1651,-448,-862,-1924,2765,-4595
0.002453,-1189,-819,-884,-3135,428,-4090
0.002432,-1631,-763,-874,-3054,82,-4332
0.002472,-1364,-751,-884,-2813,807,-4194
0.003498,-1557,-898,-902,-3465,78,-4313
0.001356,-1599,-948,-919,-3829,-1041,-3629
0.001360,-1567,-955,-903,-3307,-1172,-2194
0.003525,-1508,-1030,-876,-3922,-803,-1936
0.001334,-1808,-1043,-830,-3805,258,-2804
0.003573,-1404,-953,-873,-4057,-1729,-3034
0.002439,-1775,-968,-872,-3956,-720,-3154
0.001347,-1489,-1132,-920,-5063,-2135,-2993
0.003525,-1869,-924,-791,-4500,-1739,-1635
0.001335,-1833,-951,-785,-4619,-2442,-165
0.002420,-2058,-968,-754,-5027,-342,-778
0.003512,-1811,-898,-696,-5078,-1537,-858
0.001335,-1962,-641,-645,-4544,-2427,-408
0.003549,-1996,-694,-639,-5104,-2102,-794
0.001335,-2156,-692,-611,-5334,-1553,-547
0.002417,-2258,-624,-621,-5354,-2624,183
0.003494,-2347,-588,-598,-5053,-1480,144
0.001366,-2259,-573,-572,-5489,-2052,1035
0.001334,-2454,-528,-515,-5571,-2443,1393
0.003508,-2639,-358,-486,-5421,-2118,957
0.002416,-2439,-287,-489,-4891,-563,1082
0.003515,-2474,-286,-457,-5661,-1917,1696
0.001336,-2669,-336,-480,-5752,-1316,1128
0.001328,-2524,-127,-382,-5804,-1509,909
0.003514,-2522,-124,-440,-5353,-1831,2471
0.002473,-2962,-127,-391,-5860,-1587,2575
0.001351,-2811,58,-361,-5550,140,1469
0.002536,-2592,171,-313,-5127,-354,2126
0.004678,-2680,72,-444,-5174,-1997,2136
0.001353,-2963,108,-418,-5647,70,544
0.001360,-2548,149,-392,-5501,-707,1215
0.001489,-2863,149,-405,-5312,-1035,2560
0.003561,-2850,162,-389,-5599,280,2370
0.002468,-2657,301,-345,-5565,326,2518
0.002518,-2618,449,-324,-5009,-879,2878
0.002458,-2817,414,-338,-5057,-441,1203
0.001346,-2569,480,-340,-4663,400,123
0.003585,-2488,394,-383,-4318,-644,440
0.002470,-2617,348,-405,-4349,-781,1420
0.002478,-2729,280,-392,-4614,801,1252
0.001384,-2367,303,-397,-4480,-1146,2434
0.002546,-2738,450,-346,-4201,428,1403
0.003552,-2256,422,-408,-4004,-500,1256
0.001339,-2554,359,-380,-3911,-60,33
0.001359,-2270,282,-425,-3961,-171,-239
0.004669,-2219,254,-450,-3863,-482,323
0.001395,-2388,207,-423,-4221,-1190,514
0.002471,-2346,220,-380,-3789,-875,-272
0.001468,-2241,276,-404,-3580,-2211,191
0.003536,-2429,232,-376,-3270,-620,434
0.002457,-2367,37,-432,-4029,-554,543
0.001360,-2352,103,-412,-3753,-82,482
0.002510,-2206,195,-415,-3530,-1383,451
0.003580,-2136,189,-369,-3396,-1576,565
0.001387,-2338,43,-391,-3970,-801,-669
0.002570,-2265,111,-354,-3751,-2226,-747
0.002479,-2397,66,-327,-3659,-1565,-1509
0.002479,-2271,-18,-305,-3995,-1580,-1256
0.002491,-2472,-47,-265,-4256,-1835,-166
0.002465,-2604,-41,-318,-4498,-2539,620
0.002457,-2561,-17,-274,-4129,-319,-238
0.001375,-2131,-136,-372,-4253,-1088,31
0.003591,-2350,-59,-348,-4655,-2107,899
0.002459,-2503,21,-335,-4849,-2406,428
0.001383,-2565,129,-265,-4356,-1803,-479
0.002512,-2623,192,-280,-4032,-1393,-1357
0.002456,-2521,108,-289,-3970,-1994,-633
0.002493,-2736,21,-269,-4553,-1352,-1674
0.002506,-2623,126,-200,-4027,-1565,-1029
0.002444,-2747,69,-235,-3517,-1901,240
0.001349,-2812,-13,-244,-3843,-866,361
0.003546,-2699,-8,-242,-4013,-500,311
0.002451,-2621,131,-228,-3758,-1767,449
0.002452,-2689,112,-219,-3634,-1296,385
0.001350,-2896,56,-176,-4139,-805,-976
0.003551,-2727,126,-202,-3803,-558,-1851
0.002458,-2689,117,-233,-3430,-1367,-546
0.001349,-2885,-3,-229,-3656,-1458,176
0.002510,-3038,24,-192,-3639,-539,-276
0.002450,-2919,118,-243,-2895,-220,-195
0.002437,-2747,-33,-296,-3058,122,501
0.002460,-2708,-197,-277,-3806,-180,1407
0.002451,-2790,-92,-265,-3993,-605,1286
0.002437,-3021,62,-228,-3512,581,-527
0.002524,-2544,-19,-275,-3647,105,-1077
0.002482,-2706,-140,-301,-4106,-870,-549
0.002445,-2874,-176,-277,-4173,-960,9
0.001379,-2952,-127,-318,-3883,469,-307
0.002541,-2828,-139,-309,-3737,320,488
0.003566,-2736,-207,-323,-3916,-960,1293
0.001363,-2826,-269,-333,-3720,1361,867
0.002509,-2610,-147,-323,-3862,1427,1058
0.003611,-2867,-176,-340,-4323,895,532
0.001349,-2572,-165,-339,-4337,116,237
0.002443,-2378,-204,-360,-4531,451,128
0.002449,-2392,-251,-338,-5062,-223,-12
0.002485,-2682,-189,-318,-5065,-392,-519
0.002427,-2652,-107,-316,-4651,704,-620
0.002485,-2527,-145,-263,-4514,-273,137
0.002505,-2610,-157,-325,-4327,-416,1690
0.001364,-2765,-155,-283,-4532,2339,1210
0.003535,-2265,-89,-292,-4801,980,1178
0.002441,-2567,28,-286,-4482,-251,1032
0.001352,-2441,60,-320,-4597,461,462
0.002438,-2196,-38,-323,-5221,572,115
0.003537,-2263,18,-300,-5463,-219,-548
0.001398,-2426,209,-209,-4925,-157,-915
0.002450,-2293,123,-230,-4932,-443,-378
0.002433,-2428,34,-264,-5145,-142,345
0.002463,-2526,-10,-298,-5027,190,911
0.002453,-2503,137,-259,-4542,59,709
0.001343,-2408,215,-250,-3959,254,626
0.004655,-2250,171,-269,-3935,472,809
0.001355,-2195,72,-275,-4202,162,492
0.001358,-2400,183,-222,-4079,292,63
0.002469,-2243,243,-225,-3996,-1177,-51
0.003530,-2374,194,-274,-3969,160,-339
0.002448,-2472,157,-270,-4528,763,-1148
0.001367,-2138,198,-233,-4258,-107,316
0.002444,-2370,208,-266,-4440,154,1235
0.002443,-2448,114,-239,-5074,-165,349
0.003545,-2371,294,-252,-4013,1063,-376
0.001349,-2202,330,-269,-3728,-66,-137
0.003543,-2294,189,-265,-4180,-177,153
0.000244,-2393,112,-321,-4009,291,499
0.004630,-2296,189,-285,-3831,1489,144
0.001377,-2160,155,-320,-3916,669,243
0.001350,-2351,221,-312,-4165,134,-132
0.003537,-2240,208,-356,-4270,774,-845
0.002443,-2024,211,-363,-4368,498,-350
0.002467,-2298,226,-373,-4591,-195,718
0.002480,-2393,165,-376,-4759,473,-63
0.002472,-2216,255,-353,-4095,834,-502
0.002462,-2041,49,-387,-4310,418,-318
0.001378,-2187,-33,-377,-5009,980,-561
0.002445,-2110,59,-364,-4583,881,71
0.003553,-2113,166,-393,-4228,-598,993
0.001352,-2178,84,-421,-4536,635,872
0.003538,-2043,93,-447,-5357,1419,-544
0.001344,-1939,322,-440,-4951,-632,73
0.002443,-2284,379,-433,-4620,-769,468
0.002460,-2184,203,-425,-4848,963,-560
0.002446,-1869,180,-439,-4949,1416,-45
0.002440,-2015,256,-431,-4902,-362,618
0.002550,-2048,254,-412,-4836,-1023,472
0.002492,-2094,211,-473,-4649,1135,-835
0.002455,-1767,223,-490,-4694,314,-544
0.001384,-2028,289,-411,-4684,-1151,313
0.003555,-2123,261,-436,-4760,-914,144
0.002442,-2084,208,-464,-4723,-543,87
0.001360,-2199,257,-394,-4344,-477,-470
0.002584,-2097,243,-366,-4678,-443,-717
0.002478,-2074,160,-395,-4728,-944,-218
0.002434,-2037,137,-377,-4495,-1871,530
0.002433,-2400,238,-311,-4070,55,-687
0.003541,-1925,189,-370,-4030,254,-1665
0.002477,-1946,157,-365,-3893,-2609,-142
0.001355,-2426,50,-263,-4176,-2639,-906
0.001412,-2231,47,-322,-3844,-545,-1465
0.003540,-2135,-41,-351,-4071,-585,-949
0.001368,-2234,-98,-320,-4053,-2466,185
0.002543,-2549,-71,-253,-4117,-2003,-457
0.003577,-2379,-122,-281,-4279,-70,-2055
0.001448,-2085,-104,-276,-4606,-1152,-980
0.002469,-2544,-28,-213,-4429,-2551,113
0.001581,-2490,-139,-191,-4439,-1821,-330
0.003554,-2475,-86,-164,-4133,250,-1522
0.002477,-2338,-114,-184,-4481,-1597,-1214
0.001385,-2542,-92,-123,-4385,-1868,-1147
0.003644,-2579,-166,-117,-4572,-1401,-1287
0.002475,-2515,-201,-151,-4572,-995,-403
0.001371,-2672,-229,-200,-4781,-1250,-357
0.003620,-2520,-171,-169,-4647,-1187,-90
0.001419,-2622,-129,-145,-4623,-795,-373
0.002489,-2488,-148,-173,-4730,-1703,-113
0.002463,-2683,-88,-141,-4529,-86,-1126
0.002457,-2455,-71,-83,-4490,-1690,-434
0.002472,-2792,-157,-126,-4393,-1045,-944
0.001374,-2588,-184,-170,-4632,-529,-1600
0.003758,-2442,-222,-186,-4756,-717,-862
0.002477,-2713,-189,-219,-4744,-1630,65
0.001390,-2705,-173,-176,-4700,-1209,146
0.002465,-2646,-103,-171,-4657,181,-440
0.002487,-2562,-96,-213,-4633,-1584,299
0.002472,-2820,-131,-227,-4557,-1412,115
0.004613,-2662,-93,-145,-4375,366,-931
0.001357,-2375,-89,-171,-4329,-1087,-59
0.000266,-2708,-103,-189,-4298,-1501,411
0.003533,-2750,-119,-168,-4332,-694,-129
0.002467,-2671,-178,-222,-4397,-156,-650
0.002448,-2481,-77,-211,-4429,-1651,206
0.001354,-2761,-92,-250,-4364,-1088,417
0.003525,-2657,-92,-242,-4372,-239,149
0.002466,-2614,-47,-232,-4408,-1374,366
0.001373,-2798,-34,-189,-4420,-1529,339
0.002653,-2697,-122,-209,-4500,-396,-347
0.002463,-2519,-87,-245,-4425,-867,823
0.002471,-2835,-53,-223,-4425,-1285,1136
0.002474,-2718,-4,-198,-4117,-754,657
0.002532,-2646,-27,-258,-4264,202,-74
0.002469,-2497,-24,-246,-4296,-1118,257
0.002455,-2725,-69,-308,-4258,-1517,617
0.001417,-2798,-22,-215,-4198,-141,-175
0.003595,-2549,-37,-224,-4116,-1074,173
0.001366,-2764,-84,-247,-4277,-1602,150
0.002594,-2735,-102,-230,-4228,-722,-214
0.003571,-2713,-38,-175,-4256,-347,-76
0.001397,-2708,-81,-171,-4301,-631,309
0.002468,-2683,-37,-202,-4004,-1048,853
0.001342,-2652,-28,-187,-3995,-19,489
0.003560,-2603,-88,-234,-4183,-491,-232
0.002446,-2721,-95,-227,-3893,-923,-684
0.001356,-2768,-67,-180,-3929,184,-1550
0.003603,-2418,-240,-233,-4498,-292,-791
0.002483,-2763,-312,-241,-4661,-1771,274
0.001360,-2940,-159,-162,-4467,428,-795
0.004790,-2416,-256,-269,-4643,492,-960
0.001347,-2648,-310,-279,-4895,-1641,4
0.001359,-2887,-212,-258,-4522,353,-1000
0.003602,-2526,-234,-256,-4544,120,-582
0.001370,-2747,-320,-229,-4781,-161,-206
0.002458,-2659,-343,-205,-4910,188,-330
0.001361,-2459,-294,-198,-4918,18,118
0.003556,-2822,-299,-196,-5372,-126,-749
0.002481,-2511,-288,-238,-5196,839,-1654
0.001379,-2480,-326,-247,-5479,-635,-754
0.001474,-2593,-410,-296,-5433,471,-273
0.004672,-2547,-357,-298,-5653,299,-54
0.001368,-2604,-239,-313,-5345,57,-267
0.003582,-2547,-262,-299,-5299,-401,-687
0.001485,-2536,-265,-309,-5251,1260,-1763
0.002486,-2376,-416,-396,-5362,-343,-477
0.002467,-2739,-348,-350,-5711,-893,861
0.002472,-2636,-277,-322,-5667,2362,-413
0.002476,-2058,-302,-403,-6047,-946,1542
0.001362,-3023,-192,-301,-6189,171,-242
0.003580,-2156,-150,-383,-5769,1732,-1070
0.002464,-2370,-175,-390,-6218,-659,-87
0.001360,-2727,-157,-357,-5833,100,-30
0.001368,-2381,-232,-396,-5865,839,-496
0.003554,-2545,-290,-412,-5930,459,-608
0.002456,-2486,-233,-384,-5540,-999,325
0.003556,-2652,-283,-381,-5729,1154,-955
0.001357,-2165,-357,-433,-6167,121,1324
0.001379,-2979,-306,-343,-6752,-1384,551
0.004649,-2442,-101,-387,-5699,2254,-21
0.001376,-2332,-292,-460,-6750,-1410,1781
0.002466,-2947,-245,-373,-7251,1722,-538
0.001374,-2110,-143,-410,-6508,-1030,1356
0.003538,-2748,-58,-344,-6450,1186,92
0.002455,-2170,-208,-369,-6681,-87,1150
0.001347,-2772,-106,-300,-6561,90,-68
0.001341,-2192,13,-326,-5854,467,185
0.004628,-2586,-117,-303,-6561,129,67
0.001352,-2275,-178,-440,-6508,569,436
0.002483,-2590,-102,-296,-6336,-1131,522
0.002444,-2622,2,-303,-5951,2298,-386
0.002499,-2086,-138,-343,-6524,-1125,1167
0.002453,-2745,-150,-369,-6672,841,-91
0.002456,-2144,-42,-333,-6052,-206,711
0.003552,-2565,-77,-344,-6486,492,609
0.001353,-2195,-152,-351,-6411,894,184
0.001421,-2328,-90,-339,-7315,-793,-170
0.003568,-2390,-1,-335,-5889,-21,1259
0.001361,-2407,-126,-295,-7275,731,-494
0.002443,-2222,-195,-306,-6666,71,617
0.003545,-2668,-39,-254,-7277,8,126
0.001396,-2011,-166,-333,-6387,222,1687
0.003540,-2833,-184,-246,-7725,368,-851
0.001353,-1938,2,-307,-6033,911,1214
0.002464,-2569,-76,-234,-7483,563,261
0.002462,-1942,-174,-345,-6839,-660,1370
0.002448,-2756,9,-245,-7667,1065,-2058
0.002587,-1628,120,-349,-5528,-1198,2079
0.002464,-2636,-181,-357,-7059,674,920
0.001353,-2112,-341,-320,-8168,252,226
0.002464,-2381,106,-251,-7548,373,-1146
0.003580,-1851,189,-307,-6940,-2290,776
0.002452,-2615,79,-236,-7169,1263,-135
0.001368,-2115,-84,-291,-8081,-296,-302
0.002452,-2335,294,-322,-5897,-532,1638
0.002500,-2262,41,-289,-7546,141,-1115
0.002476,-2027,21,-316,-6808,-490,85
0.001425,-2389,-37,-320,-7611,-1479,-481
0.003541,-2259,44,-320,-6641,-219,-294
0.002442,-2370,20,-326,-7063,1091,163
0.002457,-2131,-63,-348,-7661,-2159,913
0.002473,-2593,146,-270,-6884,-142,863
0.001371,-2085,45,-324,-7677,-613,-1407
0.003591,-2270,160,-304,-6474,-283,-27
0.002465,-2567,157,-280,-6870,-206,-382
0.001353,-1995,58,-355,-6866,-437,-222
0.002462,-2587,130,-256,-7067,-1228,1136
0.003565,-2188,160,-290,-7048,-1343,-870
0.002467,-2467,185,-271,-7022,821,-1763
0.001351,-2164,80,-338,-6696,-1439,273
0.001432,-2699,-65,-249,-7497,-1555,-1541
0.003590,-2318,50,-306,-6688,-285,168
0.002428,-2600,32,-304,-7022,-125,-93
0.002467,-2350,13,-315,-6991,-2243,-78
0.001432,-2848,21,-284,-6853,1728,-298
0.003563,-1954,-105,-337,-7357,-1895,215
0.002444,-2796,1,-282,-7346,-1933,555
0.001358,-2765,15,-288,-7138,1590,-308
0.002486,-2097,5,-333,-7444,-1033,609
0.003546,-2825,65,-265,-7108,-1774,383
0.001346,-2479,230,-267,-6343,980,-3
0.003550,-2320,46,-291,-7361,-407,-199
0.001354,-2575,134,-266,-6469,-973,128
0.002449,-2597,236,-269,-6353,-550,135
0.004735,-2495,89,-338,-6993,1386,-1191
0.000254,-2242,49,-326,-7070,-1856,859
0.002458,-2920,127,-270,-7016,-538,-298
0.002451,-2244,33,-322,-7224,1282,-835
0.002483,-2375,116,-301,-6912,-2190,1571
0.002449,-2886,126,-261,-6989,198,-329
0.001339,-2313,190,-298,-6579,474,84
0.002454,-2433,120,-336,-6808,-364,259
0.003540,-2498,202,-265,-6462,-709,332
0.001396,-2562,233,-296,-6659,484,-226
0.003659,-2260,148,-317,-6661,-245,218
0.001369,-2504,158,-298,-6674,-1125,139
0.002504,-2412,124,-327,-6851,-156,-700
0.002480,-2350,142,-306,-6455,-240,-80
0.001405,-2440,174,-306,-6870,-981,88
0.004690,-2562,146,-300,-6681,-140,-2
0.001366,-2441,150,-294,-6578,36,-429
0.001380,-2247,114,-335,-6432,-702,-185
0.003545,-2395,75,-324,-6565,-423,364
0.002450,-2439,40,-299,-6903,-354,-338
0.001354,-2378,85,-327,-6776,-837,-589
0.002512,-2458,172,-306,-6650,-599,-409
0.002433,-2359,2,-321,-7188,-536,-626
0.003535,-2425,27,-314,-7191,-679,118
0.001376,-2514,113,-283,-6973,-347,308
0.002450,-2463,118,-292,-7075,-614,296
0.002442,-2506,129,-298,-6992,-47,-49
0.002448,-2345,153,-314,-7068,-860,-34
0.001435,-2381,151,-322,-6848,-681,147
0.003544,-2481,145,-290,-6843,-801,257
0.001363,-2581,239,-231,-6911,-514,-577
0.002494,-2485,220,-292,-6774,-35,-979
0.004714,-2259,184,-267,-6680,-1188,153
0.000258,-2622,116,-279,-6794,-549,-58
0.002454,-2518,164,-237,-6609,-379,-362
0.001423,-2551,253,-260,-6220,-506,-538
0.003576,-2363,178,-255,-6205,-1132,-447
0.002451,-2557,-65,-275,-6575,-307,-511
0.001438,-2541,-38,-263,-6800,-474,-242
0.003622,-2570,44,-234,-6703,-645,22
0.002415,-2613,9,-227,-6848,-124,106
0.002466,-2566,43,-214,-7182,-444,-213
0.001390,-2545,55,-267,-7076,-482,-96
0.003538,-2594,18,-234,-7053,-514,130
0.002460,-2556,26,-191,-7079,-102,-434
0.001353,-2529,79,-157,-6951,-368,-377
0.001408,-2550,146,-126,-6562,-420,-124
0.003560,-2517,133,-152,-6507,-107,345
0.002428,-2544,85,-143,-6634,48,381
0.003517,-2603,118,-161,-6377,36,133
0.001361,-2549,132,-131,-6512,70,-346
0.002468,-2398,5,-174,-7122,-138,-627
0.002464,-2539,-126,-187,-7766,-128,-605
0.002445,-2561,42,-89,-7583,-670,-284
0.003535,-2549,208,-83,-6971,244,-253
0.001350,-2497,187,-53,-6746,154,96
0.001333,-2400,164,-71,-6512,13,784
0.003533,-2368,195,-33,-6145,363,966
0.002435,-2402,200,-33,-5768,207,862
0.001346,-2550,167,-30,-6053,727,-368
0.002422,-2253,81,-70,-6376,-185,-617
0.003571,-2366,-31,-91,-7059,38,-949
0.002460,-2353,-57,-116,-7906,-436,-1324
0.001360,-2573,144,-59,-7495,-357,-1119
0.001396,-2552,203,-23,-6705,-594,-485
0.005747,-2318,125,-10,-6279,557,245
0.000350,-2287,72,26,-6331,-682,2255
0.002437,-2546,108,11,-6031,698,1209
0.002450,-2361,99,-12,-5645,947,306
0.002469,-2275,75,-3,-6137,-155,-198
0.002657,-2199,-77,-43,-7167,19,-980
0.001366,-2267,-49,-27,-7985,-252,-1151
0.002515,-2475,65,-3,-7922,-653,-1213
0.003664,-2497,154,56,-7357,-795,-963
0.001354,-2381,219,72,-6676,-36,-164
0.003545,-2272,159,21,-6417,-398,1600
0.001398,-2517,178,83,-6173,-253,1544
0.001396,-2343,229,73,-5299,703,768
0.003538,-2185,63,3,-5502,536,317
0.002450,-2197,-78,-25,-6623,-316,-383
0.002442,-2320,-36,41,-7452,5,-1226
0.002450,-2247,122,41,-7472,-708,-1507
0.001357,-2396,162,46,-7156,-903,-1359
0.002464,-2588,224,123,-6704,-868,-598
0.003546,-2415,179,164,-6229,-142,407
0.001348,-2335,100,62,-5896,-391,1626
0.002443,-2519,184,127,-5578,105,1322
0.002439,-2444,189,114,-5518,605,290
0.003568,-2178,124,63,-5818,31,132
0.001365,-2364,35,61,-6658,-553,-110
0.002437,-2446,87,66,-6799,-521,-567
0.002519,-2437,207,117,-6561,-373,-1492
0.002483,-2414,201,150,-5911,-585,-1161
0.002447,-2379,193,174,-5858,-793,-8
0.002438,-2473,120,148,-5886,-135,896
0.002453,-2529,216,160,-5525,326,1020
0.002554,-2488,224,81,-5077,609,7
0.002416,-2285,69,64,-5450,-1,-392
0.002469,-2363,-66,48,-6302,-96,-1074
0.001426,-2403,-43,76,-6651,-348,-1171
0.002427,-2497,74,88,-6342,-368,-486
0.002417,-2513,72,97,-6360,-326,172
0.002418,-2486,82,111,-6313,-36,353
0.002451,-2399,158,123,-6101,198,339
0.002441,-2407,182,93,-5863,417,341
0.002419,-2419,171,81,-5566,579,140
0.002413,-2424,218,71,-5528,223,-24
0.002445,-2311,167,63,-5754,348,-238
0.002452,-2262,184,47,-6080,-540,-321
0.002458,-2351,178,35,-5904,-388,-381
0.001339,-2338,232,78,-5722,-537,378
0.003520,-2454,241,126,-5627,-77,592
0.002433,-2330,221,100,-5378,-109,463
0.001334,-2321,336,112,-4693,211,277
0.003541,-2278,424,119,-4436,-53,403
0.002435,-2329,304,59,-4615,-74,89
0.001337,-2320,265,19,-4660,-131,207
0.002460,-2245,232,-15,-4626,-523,436
0.002505,-2321,274,14,-4780,-591,-35
0.003525,-2263,385,76,-4585,-527,-400
0.001339,-2288,383,78,-4289,-671,-359
0.002433,-2301,257,40,-4226,-577,-299
0.003535,-2280,180,9,-3500,-828,-311
0.001376,-2521,251,5,-3505,241,-2003
0.002441,-2284,96,-62,-3387,-279,-1096
0.002441,-2516,-85,-33,-4944,-630,-665
0.002453,-2248,-26,-30,-5369,-121,1473
0.002475,-2351,125,-32,-4879,-1153,3172
0.002448,-2493,221,20,-4756,-452,-416
0.001415,-2232,358,36,-3841,-685,-2344
0.003559,-2370,265,45,-3752,-949,-2296
0.001340,-2424,-31,5,-4100,-558,-967
0.002479,-2547,-143,-39,-4477,-324,811
0.003551,-2444,93,-16,-4234,-225,2608
0.001340,-2490,162,34,-4556,-566,1279
0.002453,-2287,194,45,-4214,-628,-502
0.002468,-2319,299,47,-3839,-1154,-1029
0.002508,-2430,208,23,-3752,-1066,-988
0.002433,-2659,90,34,-3754,-179,-932
0.002439,-2460,164,67,-3594,-755,-141
0.003540,-2368,55,57,-3565,-459,347
0.001323,-2336,0,21,-3764,-761,702
0.002436,-2506,74,35,-3855,-428,-354
0.002469,-2478,230,58,-3275,-469,-515
0.001380,-2415,185,28,-3036,-420,-432
0.004627,-2478,-17,25,-3512,-397,-272
0.001337,-2455,21,44,-3503,-514,-321
0.001339,-2503,78,60,-3277,-497,-489
0.003539,-2448,19,90,-3401,-359,-942
0.002448,-2382,-127,58,-3689,-648,-954
0.001374,-2384,-214,8,-3823,-401,-696
0.002449,-2445,-199,50,-4241,-544,-307
0.002453,-2601,-161,16,-4241,-78,124
0.003538,-2449,-71,56,-4333,-293,335
0.001345,-2353,-144,65,-4364,-520,224
0.001324,-2416,-137,77,-4623,-563,-355
0.003601,-2451,-33,108,-4448,-629,-870
0.002463,-2529,-11,159,-4463,-261,-875
0.003526,-2448,-93,112,-4601,-500,222
0.001340,-2520,-216,53,-4849,-151,623
0.002452,-2362,-117,53,-4747,-187,795
0.002431,-2392,-17,35,-4584,-503,815
0.002424,-2471,10,70,-4576,-279,108
0.002436,-2383,16,105,-4453,-380,-460
0.002439,-2385,19,55,-4302,-588,-2
0.002401,-2493,-33,63,-4363,-545,354
0.002440,-2443,-29,125,-4404,-173,103
0.002429,-2456,32,127,-4179,-278,177
0.001343,-2448,39,54,-4064,-186,95
0.003536,-2364,-27,47,-4088,-122,125
0.002426,-2438,-28,37,-3886,-291,270
0.002421,-2394,-8,78,-3716,-276,263
0.001353,-2400,-21,87,-3707,-292,100
0.001381,-2338,-77,84,-3834,-594,22
0.004627,-2440,-5,109,-3784,-382,-11
0.001375,-2370,-49,83,-3705,-255,281
0.001377,-2409,-31,112,-3845,-325,306
0.003749,-2473,43,157,-3935,-175,-8
0.001381,-2330,-19,72,-3855,-321,-24
0.003546,-2373,-27,69,-3868,-544,272
0.002467,-2482,-53,89,-4122,-211,-72
0.001337,-2378,43,87,-4081,-277,-195
0.002453,-2380,-64,86,-3983,-400,-161
0.003558,-2363,-86,79,-4234,-366,49
0.002435,-2409,-32,115,-4285,-143,-29
0.001391,-2395,43,97,-4136,-456,-26
0.002437,-2396,51,66,-4017,-327,89
0.003549,-2368,-26,68,-4188,-235,-126
0.001363,-2357,-17,111,-4036,-358,-102
0.001346,-2480,111,144,-3712,-244,-38
0.003636,-2333,40,109,-3694,-217,-113
0.002456,-2390,35,106,-3761,-371,-296
0.002440,-2327,31,112,-3632,-443,-430
0.002439,-2387,25,158,-3590,-340,-623
0.001378,-2357,2,117,-3483,-459,-478
0.002546,-2448,-27,109,-3412,-334,-481
0.003536,-2404,12,107,-3276,-301,-524
0.002446,-2378,61,144,-3288,-348,-494
0.001366,-2399,-44,100,-3353,-424,-538
0.003500,-2383,-81,116,-3431,-469,-671
0.001350,-2371,-137,71,-3544,-319,-499
0.002450,-2418,-178,108,-3783,-436,-231
0.003558,-2474,-159,91,-3840,-311,-175
0.001334,-2442,-100,94,-3784,-83,-99
0.002440,-2340,-105,98,-3769,-347,232
0.003527,-2414,-55,151,-3958,-223,157
0.001358,-2409,-62,113,-3918,-63,-89
0.002437,-2346,-20,126,-3815,-392,189
0.002454,-2389,-26,155,-3880,-442,270
0.001348,-2421,-93,106,-4008,-113,-258
0.003578,-2319,-78,86,-3881,-386,-137
0.002434,-2431,-31,115,-3825,-338,143
0.001341,-2375,-58,116,-3884,-155,204
0.003537,-2358,35,157,-4057,-971,314
0.002498,-2548,70,96,-3647,93,26
0.001340,-2098,16,98,-3652,-448,-170
0.002740,-2578,18,140,-3815,-567,-513
0.002479,-2221,78,137,-3410,-1859,513
0.002572,-2670,20,96,-3335,1408,-1019
0.002525,-2029,-43,100,-3541,318,-569
0.002460,-2514,21,67,-3912,-2193,443
0.002488,-2609,114,95,-3491,-545,-111
0.001345,-2240,-49,94,-4207,1851,-909
0.004652,-2195,-10,139,-4141,-1075,803
0.001361,-2679,145,124,-3886,-1523,1433
0.001353,-2431,192,129,-4198,1743,-877
0.002442,-2081,124,100,-4202,-593,121
0.002481,-2652,219,169,-3740,-2161,885
0.003512,-2492,143,134,-3768,1112,-384
0.001338,-2110,57,58,-4081,-529,1003
0.001460,-2606,158,70,-3562,-1009,1226
0.003582,-2514,347,133,-3064,906,-470
0.002442,-2029,249,117,-3190,-39,-296
0.001369,-2444,129,50,-3456,-1442,1341
0.003555,-2370,264,83,-3546,-39,-158
0.002433,-2481,264,71,-3302,375,-328
0.002449,-2150,251,36,-3353,-1329,1302
0.001419,-2521,108,78,-3839,-1882,1628
0.002469,-2703,287,127,-3352,723,-907
0.003560,-2073,476,168,-2540,102,192
0.001360,-2451,308,134,-2184,-2123,1584
0.002457,-2519,124,141,-2567,959,-505
0.002476,-2143,267,129,-2249,-391,-890
0.002480,-2503,376,154,-1083,-813,139
0.002447,-2353,63,99,-2236,-453,-117
0.001408,-2176,-17,31,-2983,1692,-674
0.003568,-2465,136,105,-3091,-2821,577
0.002455,-2681,233,131,-2269,-1239,-597
0.001375,-2400,-68,96,-3371,1557,-1351
0.003606,-1875,-101,54,-3117,-2067,744
0.001353,-2874,118,155,-2204,-2377,826
0.002442,-2713,53,186,-2115,846,-1407
0.003546,-2045,24,99,-2380,830,-1129
0.001372,-2345,-2,105,-2140,-2065,1487
0.003536,-2788,42,167,-1979,-309,-650
0.001464,-2162,171,167,-1822,1020,-1886
0.002575,-2293,34,117,-1902,-1423,-257
0.002485,-2369,-204,51,-2298,-923,-916
0.001353,-2407,-266,45,-3173,159,-1519
0.002544,-2351,-137,67,-3327,-690,-150
0.003592,-2477,-106,77,-3552,-1097,567
0.001355,-2431,-184,78,-3363,-317,-282
0.002491,-2368,-172,87,-3187,-152,-1195
0.003687,-2464,-38,111,-2609,-841,-357
0.001369,-2446,-174,105,-2745,-424,-473
0.002433,-2412,-239,67,-2855,-36,591
0.001576,-2424,-250,52,-3171,-465,1184
0.004703,-2336,-153,23,-3360,-14,601
0.001344,-2420,-107,39,-3455,-707,395
0.001390,-2308,-74,58,-3627,-548,-13
0.002596,-2387,-52,37,-3672,-241,369
0.003570,-2502,26,119,-3830,-1211,-321
0.001363,-2531,59,116,-3205,135,-493
0.002436,-2204,3,39,-3064,-1364,1601
0.002443,-2733,-98,109,-3462,-271,572
0.003574,-2361,34,101,-2830,-252,897
0.001350,-2422,43,85,-2814,-129,767
0.001337,-2312,37,53,-2865,-951,1476
0.003533,-2616,84,77,-3314,-677,444
0.002457,-2426,188,134,-2621,170,-15
0.002443,-2292,148,87,-2676,-704,637
0.002457,-2480,19,44,-3176,-1145,436
0.001332,-2538,108,75,-3105,64,-520
0.003585,-2238,126,26,-2822,-527,-192
0.002409,-2541,122,87,-2865,-565,110
0.001341,-2416,101,79,-2861,-771,442
0.002426,-2511,166,122,-2528,38,281
0.003619,-2333,103,60,-2434,-683,742
0.002456,-2515,130,78,-2462,-294,597
0.001321,-2411,87,48,-2539,-49,-39
0.001407,-2425,125,50,-2457,-109,-580
0.004654,-2403,179,93,-2450,-861,48
0.001336,-2470,47,15,-2775,-112,-395
0.002454,-2327,-35,20,-2912,-452,-791
0.002467,-2494,108,94,-2763,-784,-502
0.002442,-2449,33,46,-2771,-197,-250
0.002435,-2394,-35,54,-3210,-646,363
0.002453,-2626,90,112,-2947,-387,591
0.002436,-2439,211,99,-2391,-308,973
0.002431,-2446,92,51,-2549,-204,929
0.001334,-2427,12,19,-2959,-192,405
0.003529,-2334,185,33,-2590,-587,193
0.001348,-2356,331,81,-1897,-360,727
0.002436,-2438,225,73,-2208,-407,424
0.003548,-2397,261,70,-2018,-493,286
0.001342,-2253,257,35,-1722,-800,235
0.002430,-2389,304,41,-1770,-467,43
0.002433,-2418,217,50,-1868,-544,199
0.002464,-2439,239,71,-1542,-528,536
0.002429,-2443,304,53,-1238,-167,468
0.001341,-2348,322,117,-1034,-342,204
0.003536,-2355,281,75,-891,-522,-280
0.002429,-2307,269,67,-725,-671,-344
0.001343,-2271,192,107,-861,-421,-263
0.004624,-2475,181,107,-885,-611,-248
0.001363,-2400,188,109,-793,-379,-725
0.001336,-2373,138,46,-858,-728,-480
0.003519,-2424,17,63,-1118,-407,-465
0.002433,-2452,-141,5,-1371,-566,-441
0.002453,-2439,-43,26,-1289,-486,-169
0.001318,-2389,-7,20,-1219,-335,86
0.002439,-2430,-105,41,-1675,-491,-254
0.003523,-2407,-60,35,-1594,-571,-489
0.001380,-2399,-81,56,-1521,-488,-408
0.002440,-2369,-89,37,-1846,-533,-221
0.002461,-2498,-96,5,-2091,-518,-322
0.002469,-2388,-17,46,-1764,-479,-63
0.002452,-2422,-22,28,-1938,-531,-110
0.002438,-2467,-91,62,-2079,-326,-332
0.001338,-2392,-19,77,-2040,-564,-232
0.003515,-2409,24,74,-1802,-373,136
0.002424,-2438,-22,59,-1931,-434,91
0.002428,-2421,-19,46,-1823,-282,-43
0.002420,-2397,36,58,-1673,-535,106
0.002420,-2439,37,73,-1732,-333,-60
0.002441,-2445,64,35,-1807,-351,-302
0.001347,-2382,-55,-31,-1586,-284,-175
0.003522,-2419,-42,32,-1708,-434,-41
0.002438,-2426,-16,98,-1842,-429,-215
0.001352,-2458,35,49,-1819,-380,-327
0.004605,-2387,14,26,-1792,-457,-6
0.001330,-2478,-109,19,-2190,-415,1
0.001335,-2419,-130,-8,-2257,-419,77
0.002429,-2461,-84,19,-2262,-356,213
0.003541,-2440,-74,9,-2307,-501,373
0.002494,-2480,-42,-6,-2372,-439,348
0.001332,-2464,20,47,-2325,-372,359
0.002439,-2459,25,15,-2382,-456,518
0.003533,-2457,43,5,-2419,-366,413
0.001331,-2422,74,-8,-2335,-478,552
0.002428,-2458,125,-1,-2176,-376,553
0.002455,-2443,110,1,-2106,-401,459
0.001379,-2416,131,13,-2150,-561,284
0.004610,-2424,141,3,-2074,-431,162
0.001339,-2395,144,-28,-1953,-477,214
0.001343,-2430,135,-11,-1958,-391,277
0.003559,-2446,184,-30,-1959,-533,232
0.002439,-2412,179,-30,-1864,-387,-33
0.002440,-2340,144,-43,-1845,-733,-48
0.001335,-2443,61,-25,-1851,-511,-83
0.003520,-2488,130,-29,-1766,-464,-5
0.002427,-2437,146,-72,-1574,-388,-8
0.001337,-2438,127,-59,-1443,-464,89
0.002477,-2346,105,-39,-1484,-401,-192
0.003521,-2442,101,-4,-1447,-530,-208
0.001343,-2419,83,-51,-1303,-630,-144
0.005737,-2458,26,-21,-1452,-411,-166
0.000241,-2454,8,-38,-1558,-434,-209
0.001351,-2441,-50,-98,-1669,-493,-429
0.002442,-2404,-38,-79,-1730,-580,-295
0.001405,-2374,-46,-95,-2021,-751,-118
0.004640,-2463,-57,-78,-2021,-618,-85
0.001328,-2429,-4,-91,-1933,-515,60
0.001342,-2430,-14,-65,-2001,-614,-81
0.003545,-2428,17,-48,-2029,-462,-369
0.002444,-2422,-35,-98,-2102,-685,-127
0.001341,-2438,-30,-79,-2039,-638,276
0.002434,-2491,-61,-67,-2070,-594,195
0.003543,-2542,54,-69,-2009,-522,-383
0.002452,-2357,-35,-101,-2073,-783,-507
0.001348,-2400,-48,-71,-2135,-692,-123
0.003569,-2526,-41,-67,-2161,-488,231
0.002433,-2547,57,-55,-1995,-472,365
0.001336,-2520,91,-24,-1927,-224,-84
0.003558,-2343,20,-53,-1957,-881,316
0.002437,-2445,-48,-60,-2165,-679,145
0.001343,-2500,59,-44,-2055,-624,-107
0.002435,-2561,130,15,-1887,-418,-523
0.002486,-2443,12,-46,-1999,-786,-187
0.001337,-2463,-57,-41,-2154,-396,31
0.003537,-2464,1,-78,-2242,-632,321
0.002435,-2599,56,-68,-2025,-198,392
0.002432,-2400,51,-54,-2054,-414,534
0.002430,-2358,16,-68,-2162,-787,669
0.002436,-2498,44,-45,-2158,-507,-133
0.002443,-2434,138,-13,-2011,-667,-388
0.001336,-2422,71,-12,-2130,-570,-17
0.003531,-2414,-56,-44,-2426,-732,176
0.002428,-2550,2,-13,-2253,-246,103
0.002419,-2426,92,1,-2175,-272,521
0.002424,-2422,2,-47,-2477,-494,433
0.001321,-2411,2,-57,-2503,-484,24
0.002418,-2452,115,0,-2251,-691,95
0.002425,-2433,77,7,-2348,-314,-132
0.002421,-2434,-26,-8,-2563,-646,34
0.003519,-2535,62,-10,-2393,-368,240
0.001332,-2413,51,-37,-2351,-418,629
0.001394,-2481,122,-3,-2433,-318,234
0.004631,-2478,137,20,-2335,-632,-103
0.001333,-2344,167,12,-2073,-202,95
0.002415,-2422,26,-39,-2628,-745,1
0.002444,-2551,59,-21,-2388,-251,-22
0.002427,-2431,156,-1,-2128,-266,286
0.002426,-2347,62,-15,-2184,-505,302
0.001333,-2576,72,-47,-2402,-340,-68
0.003537,-2341,140,-34,-2163,-487,10
0.002444,-2446,151,-25,-2212,-376,-118
0.001342,-2465,126,-26,-2116,-386,156
0.002499,-2394,121,-40,-2145,-325,-59
0.003532,-2444,171,-1,-2129,-572,-163
0.001343,-2403,82,-50,-2040,-372,-191
0.002420,-2384,16,-76,-2372,-757,-69
0.002451,-2472,96,-71,-2181,-191,174
0.003518,-2428,95,-82,-2268,-689,41
0.001339,-2494,128,-42,-2249,-82,-681
0.002492,-2339,103,-24,-2077,-502,-372
0.003540,-2383,61,-33,-2226,-1000,-29
0.001320,-2527,46,-17,-2104,-21,35
0.002433,-2546,185,30,-2072,-553,-113
0.002464,-2435,213,-23,-1917,-464,-344
0.002441,-2470,89,-86,-2065,-359,125
0.003529,-2390,-23,-98,-2553,-312,-321
0.001338,-2430,80,-72,-2338,-671,-83
0.003537,-2615,159,-38,-1902,-525,258
0.001336,-2463,14,-7,-2329,-330,-769
0.002415,-2436,3,-29,-2306,-282,-700
0.002423,-2531,66,-13,-2254,-914,73
0.002429,-2419,45,-21,-2118,-166,402
0.001342,-2585,56,-10,-2533,-891,1000
0.003521,-2572,73,-76,-2140,220,-179
0.001349,-2261,57,-108,-2517,-370,-290
0.002436,-2501,42,-81,-2560,-667,-401
0.003536,-2408,79,-117,-2550,-1602,246
0.001335,-2718,146,-94,-2165,883,121
0.003545,-2358,45,-78,-2720,199,-354
0.001342,-2329,86,-83,-2499,-1306,539
0.002436,-2682,128,-84,-2576,-113,467
0.002478,-2255,96,-106,-2795,-211,413
0.002421,-2638,168,-66,-2523,728,-7
0.003545,-2255,208,-96,-2212,-1694,1164
0.001374,-2655,159,-87,-2531,26,-485
0.001364,-2282,129,-88,-2619,218,-300
0.003561,-2464,241,-68,-2229,-1061,721
0.002464,-2600,175,-77,-2502,-98,152
0.001331,-2326,210,-127,-2323,4,918
0.002466,-2448,160,-126,-2704,-529,494
0.003531,-2375,254,-80,-2256,-684,642
0.002430,-2596,321,-55,-2244,11,-558
0.001366,-2203,235,-135,-1798,-838,221
0.002433,-2559,168,-94,-2011,-353,57
0.003527,-2473,212,-76,-2133,-671,-56
0.001339,-2516,221,-118,-1931,650,-35
0.002460,-2237,56,-128,-2333,-1285,950
0.003547,-2656,127,-120,-2255,280,367
0.001343,-2259,164,-79,-2230,-820,177
0.002451,-2486,237,-115,-1736,-116,-157
0.002449,-2324,133,-111,-2090,-953,11
0.003539,-2519,55,-105,-2304,-183,-374
0.001349,-2466,102,-102,-2443,-65,-166
0.001390,-2380,110,-143,-2252,-418,338
0.004801,-2484,59,-147,-2636,-887,766
0.001353,-2470,137,-122,-2321,33,-132
0.001358,-2455,191,-145,-2137,-10,-657
0.003533,-2270,161,-131,-2060,-906,175
0.001341,-2492,83,-125,-2476,-614,159
0.002429,-2365,103,-176,-2371,-83,121
0.003532,-2547,151,-130,-2472,-211,-110
0.001391,-2360,154,-131,-2302,-396,164
0.002432,-2329,137,-88,-2591,-889,98
0.002438,-2429,204,-86,-2364,540,-542
0.002444,-2323,242,-77,-2219,-1452,356
0.002439,-2574,227,-88,-2033,302,-497
0.002431,-2249,88,-154,-2369,-826,58
0.003532,-2579,152,-148,-2073,21,-436
0.001357,-2234,195,-155,-1929,-1385,771
0.001349,-2659,185,-103,-2138,405,-508
0.004639,-2222,152,-113,-2107,-766,-125
0.001358,-2568,176,-140,-1824,-727,-198
0.002423,-2303,63,-163,-2138,2,-290
0.001422,-2476,60,-117,-2387,-696,-109
0.003561,-2465,109,-125,-1966,-65,-538
0.002473,-2297,114,-155,-1708,-1092,613
0.001706,-2579,29,-114,-2493,300,-517
0.001357,-2244,62,-131,-2255,-582,179
0.004667,-2560,149,-125,-2004,-590,180
0.001354,-2349,150,-175,-2300,211,-185
0.002441,-2351,40,-177,-2348,-428,-46
0.001431,-2475,76,-150,-2211,-728,-465
0.003535,-2372,94,-166,-2086,-40,-292
0.002451,-2265,-37,-164,-2751,-568,220
0.001345,-2509,30,-139,-2573,-122,406
0.002622,-2327,119,-116,-2355,-355,317
0.003553,-2382,167,-170,-2480,-414,-36
0.001337,-2484,172,-84,-2355,58,-646
0.002500,-2288,116,-119,-2146,-304,-175
0.002463,-2350,64,-135,-2397,-793,263
0.002451,-2461,108,-123,-2376,670,-494
0.002483,-2248,114,-152,-2222,-690,128
0.001414,-2435,86,-169,-2080,-479,-284
0.003594,-2342,111,-132,-2241,327,-677
0.002442,-2239,66,-176,-2101,-402,126
0.001368,-2344,70,-172,-2207,-695,125
0.003552,-2385,31,-136,-2298,-102,-583
0.001303,-2338,9,-165,-2057,301,-600
0.002455,-2192,28,-140,-2065,-844,203
0.002456,-2467,19,-117,-2326,-191,-543
0.002396,-2295,38,-138,-2003,76,-533
0.002412,-2196,-42,-145,-2104,-147,-273
0.002474,-2353,-112,-142,-2629,-357,-234
0.002412,-2372,-68,-160,-2568,-155,-503
0.002406,-2210,-37,-198,-2448,230,-492
0.001405,-2129,-78,-163,-2573,-1149,530
0.003520,-2547,-149,-177,-2828,-156,-427
0.002406,-2153,-88,-186,-2560,560,-794
0.001377,-2200,-92,-177,-2832,-1174,-48
0.003509,-2430,-111,-167,-2665,-203,-346
0.002446,-2174,-93,-222,-2938,557,-410
0.001365,-2270,-55,-204,-2985,-1352,165
0.003502,-2428,34,-136,-2628,26,-350
0.001315,-2134,-87,-205,-2773,441,-465
0.002423,-2204,-134,-213,-2996,-1383,-476
0.003476,-2560,53,-146,-2263,11,-659
0.001326,-2179,-78,-214,-2508,647,-353
0.003498,-2213,-163,-217,-3206,-1236,86
0.001306,-2525,-36,-195,-2531,-1,-244
0.003498,-2105,-37,-221,-2494,581,-229
0.002424,-2271,-76,-231,-2944,-643,-577
0.001314,-2398,51,-145,-2548,-440,-437
0.002410,-2152,-146,-225,-2718,160,-628
0.003518,-2267,-157,-205,-2915,-593,-530
0.002414,-2436,-114,-227,-2677,-475,-125
0.001377,-2314,-166,-298,-2894,411,-591
0.002412,-2191,-130,-259,-2875,-72,-190
0.002431,-2225,-119,-212,-2893,-1103,463
0.002502,-2390,-46,-210,-3161,-290,-581
0.002438,-2240,-62,-226,-2777,644,-586
0.002412,-2155,-89,-212,-2809,-1562,140
0.001371,-2469,-108,-216,-2855,-87,-565
0.003524,-2273,-147,-212,-2973,468,-638
0.002441,-2079,-70,-244,-3011,-1248,333
0.001314,-2519,-68,-218,-2971,-585,111
0.003495,-2400,-102,-186,-2693,665,-605
0.002413,-1985,-25,-164,-2805,-653,-62
0.002408,-2340,-128,-177,-2942,-881,237
0.002435,-2362,-24,-163,-2544,-226,-132
0.001315,-2203,-97,-252,-2705,-64,-235
0.003597,-2405,-130,-228,-2727,-257,-100
0.002457,-2159,-143,-214,-2763,-1096,50
0.001359,-2266,-159,-224,-2921,103,-586
0.003538,-2287,-75,-157,-2750,-316,200
0.001358,-2273,-136,-189,-2782,-821,-29
0.003599,-2345,-153,-169,-2660,26,-349
0.003531,-2210,-199,-192,-2700,-336,75
0.000568,-2098,-169,-212,-2953,-942,114
0.002478,-2379,-117,-185,-2973,-274,-56
0.002440,-2385,-117,-182,-2610,-269,92
0.002489,-2086,-186,-183,-3053,-615,-414
0.002452,-2374,-190,-137,-2919,-254,-131
0.001362,-2190,-160,-192,-2678,-1296,290
0.003532,-2249,-114,-153,-2580,-199,44
0.002440,-2344,-119,-87,-2729,298,22
0.001399,-2149,-147,-107,-2793,-1023,-25
0.003540,-2274,-145,-144,-2650,-944,293
0.001369,-2400,-205,-114,-2677,346,134
0.003533,-2129,-209,-108,-3085,-967,4
0.002445,-2370,-180,-154,-2610,-762,68
0.001364,-2296,-215,-112,-2660,-455,-363
0.002474,-1990,-275,-134,-3231,-922,165
0.001410,-2484,-100,-46,-2881,-486,291
0.004658,-2294,-68,-76,-2730,-353,-11
0.001348,-2229,-230,-143,-2631,-662,259
0.001351,-2372,-202,-86,-2832,-660,221
0.003552,-2175,-164,-72,-3037,-216,-91
0.001342,-2291,-92,-58,-2908,-757,413
0.002453,-2395,-139,-75,-2735,-862,204
0.003550,-2239,-208,-87,-2728,-769,-711
0.001331,-2254,-150,-67,-2505,223,0
0.003609,-2263,-183,-80,-3029,-715,247
0.002471,-2203,-160,-79,-2852,-1646,653
0.001337,-2671,-21,-16,-2158,-73,266
0.002447,-2087,-68,-15,-2686,-370,-559
0.002550,-2302,-115,-18,-2762,-804,230
0.002452,-2380,-90,-14,-2479,-1406,498
0.002452,-2242,-185,-52,-2582,-797,-449
0.002432,-2449,-154,-79,-2153,52,305
0.002454,-2247,-238,-60,-2910,-903,-226
0.002448,-2255,-195,-50,-2861,-424,161
0.001345,-2353,-76,-42,-2630,-984,675
0.003522,-2215,-100,-84,-3072,-963,353
0.001393,-2470,-125,-102,-2652,-637,648
0.002470,-2304,-92,-69,-2834,-683,-168
0.003544,-2196,-60,-80,-2842,-1083,-307
0.001349,-2458,-67,-32,-2483,-1126,816
0.002459,-2407,-155,-86,-3078,-483,-11
0.003594,-2287,-59,-108,-2551,-106,368
0.001337,-2447,29,-45,-2456,-681,693
0.002441,-2140,-61,-42,-2663,-1081,166
0.001334,-2508,45,-22,-2463,-603,257
0.003544,-2344,15,-73,-2364,-1291,-99
0.002431,-2421,12,-63,-2051,232,-610
0.001362,-2213,-56,-20,-2433,-1106,490
0.003595,-2442,-131,-59,-2779,-910,72
0.002442,-2460,-89,-85,-2368,-781,344
0.002459,-2372,-158,-101,-2774,-189,-403
0.001384,-2304,-45,-91,-2437,-561,334
0.003514,-2350,-64,-86,-2515,-729,677
0.002426,-2376,-87,-88,-2658,-288,50
0.001335,-2442,20,-87,-2144,-995,605
0.004702,-2422,-125,-121,-2840,-608,-476
0.001368,-2362,-74,-103,-2370,-350,109
0.001351,-2363,-66,-84,-2880,-1478,804
0.002500,-2606,-71,-86,-2517,329,348
0.002454,-2312,-14,-93,-2769,-548,337
0.002441,-2361,27,-117,-2503,-1142,525
0.002441,-2394,23,-116,-2284,-1537,468
0.001426,-2479,-56,-113,-2622,-82,-759
0.004632,-2354,-41,-181,-2219,-725,400
0.000259,-2470,-34,-151,-2392,-1011,208
0.003546,-2493,-47,-138,-2577,32,-255
0.002439,-2386,-4,-179,-2392,-1036,465
0.001348,-2496,-60,-167,-2606,-819,366
0.004672,-2431,-61,-183,-2700,-1082,187
0.001357,-2444,-5,-142,-2537,65,-727
0.001383,-2372,32,-124,-2045,-1278,844
0.002453,-2556,-86,-117,-2795,-733,9
0.002446,-2558,-74,-133,-2699,503,-260
0.003547,-2152,36,-152,-1958,-1246,1401
0.001349,-2786,-94,-137,-2711,-290,330
0.002438,-2269,12,-163,-2482,-243,448
0.002450,-2441,100,-111,-2649,-402,-580
0.002449,-2333,84,-141,-2055,-2027,802
0.002465,-2654,-107,-124,-2745,-94,-678
0.002449,-2423,-79,-108,-2648,-650,-149
0.001341,-2400,47,-149,-2310,-630,762
0.004665,-2689,-57,-108,-2547,-670,360
0.001360,-2309,28,-141,-2462,-382,718
0.001349,-2563,104,-145,-2357,-576,-54
0.002444,-2357,40,-162,-1957,-1581,148
0.003541,-2618,-58,-154,-2078,846,-1446
0.001371,-2214,-68,-151,-2474,-2308,657
0.002453,-2807,5,-117,-2077,373,-307
0.002433,-2364,-58,-129,-2508,-376,59
0.003548,-2427,-67,-181,-2508,-564,807
0.001380,-2754,-94,-131,-2942,-924,-58
0.002443,-2226,58,-152,-2318,-1111,795
0.002447,-2764,-46,-112,-2728,615,-1094
0.002469,-2045,81,-100,-2004,-2244,1031
0.003532,-2985,56,-52,-2340,797,-1384
0.002453,-2012,-57,-123,-2443,-1731,618
0.001329,-2910,5,-64,-2803,930,-440
0.001390,-2192,-30,-135,-2906,-2676,757
0.003514,-2818,68,-81,-2116,1532,-34
0.002458,-2241,-144,-88,-3126,-1578,385
0.001336,-2505,90,-72,-2377,-182,351
0.003566,-2763,152,-35,-2242,-570,-1042
0.002437,-2162,15,-142,-2000,-356,326
0.001346,-2929,-127,-75,-3130,128,-486
0.001416,-2076,-24,-103,-2568,-1400,995
0.004625,-3021,94,-61,-2434,1333,-592
0.001683,-1912,-58,-138,-2995,-2034,855
0.002604,-2978,101,-31,-2534,967,-615
0.001347,-2046,51,-72,-2641,-2024,199
0.003559,-2923,112,-28,-2132,1958,-1071
0.002450,-2036,-72,-112,-3358,-2398,862
0.001331,-2784,85,-84,-2626,732,372
0.001336,-2314,6,-72,-3360,-1746,191
0.004629,-2637,162,-64,-2289,733,217
0.001342,-2445,40,-70,-3412,-2293,201
0.002458,-2561,186,-96,-1515,1931,-560
0.003527,-2364,27,-36,-2927,-2324,152
0.001366,-2714,196,-12,-1804,1169,-345
0.002478,-2308,17,-11,-3197,-2020,-92
0.001370,-2645,114,-41,-1780,1060,136
0.004571,-2439,1,-68,-3146,-993,109
0.001355,-2517,124,-106,-1915,565,313
0.001361,-2459,45,-70,-2863,-491,-864
0.003533,-2286,104,-97,-1601,-154,119
0.002465,-2660,-96,-79,-3223,-1052,-863
0.001335,-2354,59,-107,-2059,588,-31
0.003581,-2487,-31,-118,-3281,-1001,390
0.001344,-2388,72,-109,-2128,102,1264
0.004634,-2582,-48,-93,-3424,-114,-438
0.001349,-2201,138,-140,-1824,-179,144
0.001349,-2705,89,-36,-2714,-939,-1083
0.003524,-2243,15,-88,-2006,288,-540
0.001387,-2670,-61,-66,-3467,-199,-980
0.002453,-2183,-40,-164,-1871,-317,1096
0.003531,-2863,-64,-124,-3199,-149,-8
0.001340,-2156,46,-136,-2065,1021,-40
0.002449,-2471,15,-146,-3175,-645,172
0.002437,-2397,39,-146,-1476,-642,364
0.003562,-2573,-146,-151,-2990,1303,-1750
0.001344,-2039,-4,-184,-2246,-724,603
0.001355,-2626,2,-165,-2977,-24,490
0.003545,-2291,-25,-159,-2493,-320,650
0.002453,-2556,-53,-158,-3209,1482,-853
0.001358,-1930,91,-186,-2311,-1620,1381
0.002430,-2774,53,-78,-2843,507,-679
0.003536,-2003,-30,-191,-2671,-298,-47
0.002431,-2729,55,-216,-2876,348,-51
0.001357,-1975,11,-228,-2313,-1170,1030
0.002445,-2734,-22,-164,-2842,410,-331
0.003516,-2031,17,-258,-2422,366,10
0.001343,-2385,13,-210,-2435,-886,512
0.002444,-2296,-25,-247,-2679,223,-408
0.002438,-2488,-9,-211,-2749,142,-571
0.002444,-2058,-10,-312,-2357,-737,761
0.002444,-2591,-81,-264,-2836,-728,266
0.002445,-2170,-24,-254,-2900,788,-422
0.002445,-2327,-3,-269,-2717,-1760,960
0.002493,-2369,54,-256,-2695,762,-541
0.002455,-2222,-33,-297,-3005,-1052,324
0.002439,-2424,-7,-325,-2770,932,-344
0.002434,-2165,-6,-325,-2824,-2156,870
0.002410,-2695,73,-273,-2694,2033,-1131
0.002415,-1838,-12,-339,-2815,-1838,866
0.001295,-2757,9,-270,-2999,506,-10
0.004598,-2096,20,-308,-2833,-1403,364
0.001318,-2529,87,-295,-2696,1464,-1109
0.001328,-1925,-38,-385,-2907,-2205,1595
0.003504,-2873,15,-298,-2939,815,-1122
0.001311,-1712,43,-385,-2233,-1038,858
0.002457,-2723,-12,-313,-3282,-287,-191
0.003467,-1941,1,-350,-2950,86,375
0.001313,-2505,92,-286,-3153,-1310,312
0.003490,-2235,150,-319,-2845,712,-554
0.002399,-2307,124,-300,-2970,-1709,656
0.001347,-2272,76,-316,-2569,1174,-516
0.003482,-2088,1,-416,-3250,-1653,1281
0.001328,-2666,142,-367,-2722,806,-331
0.003498,-1862,106,-391,-2747,-1619,708
0.002395,-2684,77,-335,-2970,696,-747
0.001341,-1841,94,-333,-3022,-846,567
0.002410,-2607,126,-305,-2539,-1125,813
0.003489,-2145,88,-374,-2864,957,-608
0.001314,-2263,90,-316,-3071,-1962,581
0.002416,-2292,132,-327,-2533,1076,-436
0.002439,-2024,-12,-346,-3055,-2068,879
0.003498,-2641,150,-328,-2688,1261,-858
0.001339,-1847,143,-365,-2561,-1953,1491
0.002404,-2702,143,-344,-2508,621,-604
0.002396,-1770,84,-372,-2762,-884,116
0.002405,-2648,156,-274,-2616,-967,278
0.002390,-1991,128,-373,-2545,639,17
0.002400,-2292,49,-373,-3140,-2391,998
0.003497,-2491,173,-369,-2645,1795,-469
0.001319,-1811,97,-380,-2830,-2188,1461
0.002409,-2595,155,-320,-2949,1185,-759
0.002409,-1827,148,-353,-3218,-2028,832
0.002401,-2696,222,-339,-2527,348,-707
0.001312,-1725,131,-392,-2679,-945,480
0.004580,-2762,136,-353,-3023,-472,366
0.001319,-1959,173,-376,-2475,1124,-197
0.001325,-2062,142,-377,-2809,-2467,1650
0.003500,-2665,222,-344,-2909,1703,-615
0.001325,-1693,246,-351,-2728,-1315,1299
0.004586,-2519,248,-309,-3019,-681,64
0.001308,-2008,162,-441,-2790,559,100
0.001316,-2190,139,-425,-3107,-1405,799
0.003498,-2190,228,-403,-3110,846,-708
0.002418,-2154,315,-361,-2783,-1576,1104
0.001309,-2342,233,-393,-2634,435,584
0.003490,-1905,166,-452,-2984,-168,768
0.001318,-2346,299,-384,-2970,-513,-247
0.002430,-1904,330,-475,-1884,-75,232
0.003496,-2137,167,-443,-2689,-1013,332
0.001313,-2290,83,-457,-3062,897,-1018
0.002627,-1870,269,-450,-2244,-1158,1169
0.003500,-2260,202,-475,-2789,-245,1006
0.001332,-2109,202,-496,-3346,603,-88
0.002406,-1902,331,-499,-3075,-1051,418
0.002418,-2174,331,-459,-2577,193,-279
0.002422,-1922,162,-556,-2994,-1797,505
0.002404,-2469,316,-468,-3000,885,-577
0.002411,-1719,294,-560,-2526,-421,639
0.002415,-2220,247,-524,-2709,-1103,1244
0.001337,-2248,316,-533,-2804,92,-696
0.003494,-1894,274,-552,-2270,155,-654
0.002403,-2062,271,-497,-2731,-1253,73
0.001321,-2147,143,-507,-2916,75,-44
0.003499,-2011,143,-552,-3008,-1167,843
0.002431,-2270,346,-498,-2569,276,-460
0.003477,-1886,240,-567,-2542,-685,-5
0.001318,-2095,148,-596,-3349,-1353,-72
0.001338,-2133,203,-607,-2899,-450,-361
0.003511,-2100,209,-652,-2527,-1312,-21
0.002419,-2343,280,-559,-2380,-445,-1221
0.001316,-2017,207,-590,-2451,-821,-977
0.003498,-2086,156,-565,-2597,-2113,-101
0.001313,-2321,98,-585,-2352,-203,-481
0.003491,-2210,62,-634,-2230,-960,-118
0.002402,-2207,70,-623,-2683,-887,-562
0.001318,-2173,56,-590,-2684,-484,-1026
0.003489,-2093,59,-589,-2936,-2212,183
0.002407,-2353,90,-587,-2831,-1000,-985
0.001324,-2226,134,-553,-2702,-123,-1507
0.003495,-2231,50,-593,-2881,-2129,-568
0.001323,-2307,74,-542,-2797,-2184,-616
0.002463,-2383,54,-491,-2878,-856,-921
0.003550,-2366,39,-521,-3039,-1136,-669
0.001364,-2432,127,-533,-2354,-1710,-333
0.002469,-2413,28,-518,-2687,-1109,-523
0.002445,-2430,8,-499,-2880,-885,-1412
0.003539,-2204,59,-448,-2359,-2321,-460
0.001355,-2589,51,-440,-2393,-1244,-625
0.002474,-2510,-62,-434,-2643,-699,-1452
0.002458,-2424,-22,-443,-2125,-1730,-811
0.001363,-2527,-46,-437,-2193,-1590,-302
0.003550,-2616,-247,-465,-2632,-685,-221
0.002491,-2493,-127,-446,-2650,-1133,-281
0.001363,-2594,-42,-439,-2703,-1148,-542
0.003558,-2466,-118,-441,-2891,-1612,-232
0.002465,-2583,-298,-436,-3045,-1241,-397
0.001366,-2579,-177,-419,-3187,-1500,-277
0.003530,-2739,-120,-397,-2999,15,-611
0.001365,-2408,-194,-407,-3438,-1883,586
0.003564,-2767,-213,-412,-3529,-1027,171
0.002454,-2458,-94,-349,-3081,-989,-6
0.001365,-2666,-132,-391,-3317,-853,-782
0.002458,-2632,-98,-378,-2987,-424,-850
0.001369,-2595,-128,-384,-3091,-2650,707
0.004637,-3006,-120,-361,-3231,125,-571
0.001332,-2371,-149,-378,-2980,6,383
0.001380,-2672,-139,-400,-3165,-2251,807
0.003576,-2792,-60,-345,-2996,-340,-312
0.002439,-2519,-209,-443,-3030,42,-507
0.001362,-2451,-151,-453,-3485,-1767,179
0.003544,-2812,-89,-404,-3032,-286,-2
0.001358,-2426,-125,-402,-3117,-788,-32
0.002454,-2674,-111,-445,-3153,-268,-718
0.003539,-2604,-82,-430,-2908,-1243,203
0.001394,-2723,-73,-402,-3002,-801,300
0.002456,-2543,-128,-424,-3149,812,-258
0.003542,-2397,-99,-485,-2985,-1837,916
0.001373,-2861,-55,-468,-2949,-522,-928
0.002448,-2435,-66,-517,-2263,-242,-488
0.001361,-2702,-165,-514,-2895,-1531,411
0.003522,-2629,-52,-500,-2446,-586,64
0.002459,-2582,-94,-552,-2289,285,-239
0.003600,-2516,-152,-582,-2588,-1213,406
0.001386,-2747,-76,-556,-2798,-1359,-345
0.001354,-2528,-102,-570,-2252,151,210
0.002475,-2556,-225,-591,-2985,-362,347
0.003582,-2543,-143,-648,-2755,-1176,441
0.001360,-2671,-148,-636,-2513,-602,274
0.002466,-2594,-186,-606,-2944,-1212,-791
0.003586,-2667,-206,-659,-2851,388,-1324
0.001368,-2515,-181,-668,-2900,-1261,751
0.002464,-2838,-240,-661,-3558,-1392,711
0.001357,-2689,-240,-707,-3208,577,-46
0.003565,-2437,-156,-713,-3138,-1855,1161
0.002446,-2784,-86,-728,-2805,-937,226
0.001364,-2635,-126,-664,-2953,374,-675
0.003540,-2599,-81,-710,-2903,-1083,41
0.001379,-2705,-132,-726,-2792,-603,392
0.004644,-2659,-218,-731,-2899,-970,870
0.001360,-2787,-218,-760,-3436,181,-611
0.001352,-2448,-111,-756,-2411,105,237
0.002538,-2708,-114,-681,-3237,-1437,80
0.002685,-2710,-159,-699,-3218,-325,-640
0.003586,-2562,-130,-717,-2988,-238,124
0.001423,-2617,-221,-823,-2891,-1168,755
0.001383,-2800,-223,-767,-3320,-726,-641
0.003558,-2623,-80,-755,-2393,-96,-228
0.002471,-2524,-138,-773,-2970,-852,6
0.001366,-2784,-179,-775,-2611,-1459,277
0.003532,-2847,-96,-723,-2434,855,-705
0.001371,-2352,-174,-781,-2492,-411,-127
0.003571,-2795,-252,-801,-3211,-412,-56
0.002445,-2527,-242,-840,-2923,4,506
0.002460,-2601,-260,-892,-3329,-1008,630
0.001360,-2758,-193,-842,-2914,573,-379
0.001379,-2513,-192,-833,-3059,400,-935
0.004638,-2436,-257,-850,-3211,-1469,-17
0.001348,-2900,-230,-819,-3134,52,-412
0.001429,-2498,-185,-881,-2563,-337,178
0.003577,-2771,-249,-915,-2793,102,-179
0.002448,-2563,-244,-899,-2268,-170,171
0.001355,-2510,-301,-871,-2956,-541,286
0.003548,-2689,-260,-842,-2805,640,276
0.001354,-2491,-266,-836,-3128,143,245
0.004663,-2608,-265,-911,-2864,-551,263
0.001359,-2593,-300,-873,-2825,504,-409
0.001413,-2356,-385,-937,-3331,394,-16
0.002465,-2612,-305,-923,-3444,311,155
0.002469,-2456,-211,-893,-2771,-769,1040
0.003556,-2682,-294,-923,-3032,1002,-102
0.001350,-2263,-266,-948,-2867,147,432
0.002450,-2572,-190,-929,-2870,-616,533
0.002468,-2485,-186,-987,-2656,566,-399
0.001359,-2312,-247,-1000,-2947,247,199
0.003574,-2443,-228,-963,-3100,-700,801
0.002471,-2341,-215,-987,-2928,834,-292
0.001366,-2204,-182,-1016,-2909,-371,774
0.003567,-2551,-174,-960,-3120,472,-68
0.002457,-2200,-249,-978,-3149,1229,-521
0.001369,-2274,-257,-1022,-3304,-75,756
0.003583,-2356,-287,-1040,-3175,-1281,1491
0.001441,-2465,-255,-1005,-3510,1578,-233
0.003578,-1995,-143,-1036,-3566,-352,884
0.003551,-2503,-71,-977,-3423,-1222,232
0.000256,-2281,-63,-1026,-3004,684,38
0.002459,-2163,-143,-1026,-3394,20,27
0.002468,-2168,-81,-1036,-3164,-396,1365
0.001356,-2357,-39,-983,-3239,763,676
0.003547,-1893,-44,-1034,-3204,-301,771
0.001377,-2239,39,-1073,-2777,-229,622
0.004645,-2061,-35,-1111,-2880,1297,-6
0.001368,-2098,-34,-1070,-3247,-1090,501
0.001342,-2384,-36,-1086,-3016,-15,32
0.002446,-2059,-116,-1135,-3491,211,74
0.003569,-2012,-75,-1133,-3477,2,885
0.002466,-2224,-26,-1145,-3160,-2143,2272
0.001357,-2493,95,-1108,-2908,1369,-922
0.001363,-1758,108,-1152,-2562,-654,-46
0.003567,-2406,103,-1127,-2565,-1794,1159
0.002448,-2160,-36,-1172,-2988,157,467
0.001363,-2072,102,-1109,-2583,356,1350
0.003596,-2037,125,-1150,-2696,-2131,2005
0.001352,-2351,66,-1119,-2825,122,-638
0.002486,-1814,66,-1174,-2915,506,-961
0.003551,-2090,89,-1181,-2918,-3082,273
0.001354,-2552,8,-1244,-2656,-274,-358
0.002455,-2172,-57,-1219,-2955,585,-694
0.003500,-2108,-4,-1223,-2739,-1753,845
0.001368,-2479,23,-1237,-2799,-1530,1210
0.002452,-2298,-43,-1286,-3071,1068,-490
0.002420,-1917,38,-1274,-2867,-2367,1832
0.002421,-2667,112,-1205,-3056,-589,660
0.002448,-2019,95,-1213,-3079,309,-638
0.002413,-2009,90,-1262,-3039,-1762,690
0.002420,-2566,136,-1200,-3055,-2025,212
0.003516,-2400,103,-1256,-2936,-2,-1224
0.002405,-2193,40,-1336,-3050,302,-726
0.001321,-2383,13,-1335,-3098,-2652,547
0.001412,-2604,83,-1336,-2927,-117,-110
0.003520,-2217,102,-1334,-2888,268,703
0.001350,-2307,12,-1376,-3080,-1987,1704
0.004656,-2535,128,-1345,-3011,-1012,1141
0.001393,-2265,177,-1384,-3031,1391,-775
0.001335,-1865,212,-1418,-2902,-1345,1227
0.002519,-2675,219,-1333,-3232,-2312,744
0.003502,-2475,319,-1294,-3132,693,-1719
0.001320,-1995,234,-1427,-2946,192,-763
0.002531,-2321,47,-1480,-3645,-2447,811
0.002499,-2671,74,-1461,-3414,-722,816
0.003539,-2337,228,-1472,-2951,1134,-255
0.001390,-2121,205,-1490,-2514,-2283,1558
0.002426,-2638,139,-1453,-2848,-782,800
0.002405,-2127,108,-1512,-3012,1217,47
0.001345,-2061,170,-1523,-3183,-1179,1769
0.004615,-2591,367,-1479,-3257,-1021,1231
0.001336,-2215,365,-1512,-3211,-270,-430
0.001375,-2077,323,-1575,-3533,65,-655
0.003512,-2409,313,-1557,-3668,-2173,560
0.001319,-2408,307,-1588,-3686,-29,-384
0.002484,-2181,286,-1638,-3682,-259,1011
0.003517,-2331,291,-1705,-3473,-1691,1668
0.001324,-2386,359,-1645,-3269,-582,888
0.003515,-2190,427,-1631,-3253,-557,214
0.002412,-2181,451,-1659,-2716,-823,822
0.001327,-2376,431,-1655,-2662,-1296,683
0.004596,-2259,385,-1663,-3195,-265,-813
0.001344,-2240,468,-1673,-3182,-1339,416
0.002434,-2415,435,-1675,-3216,-972,20
0.002491,-2181,428,-1727,-3480,-1138,735
0.001391,-2476,424,-1702,-3326,-1227,483
0.002459,-2168,434,-1727,-3234,-926,341
0.002467,-2368,427,-1713,-3288,-1724,555
0.002474,-2404,475,-1673,-3062,-1479,-501
0.002497,-2298,399,-1671,-2769,-1184,-95
0.001377,-2426,410,-1707,-3193,-1125,-424
0.003554,-2276,436,-1761,-3115,-2150,960
0.001362,-2637,556,-1646,-2997,-1279,52
0.002483,-2211,606,-1639,-3190,-1427,-1082
0.003564,-2568,724,-1598,-2671,-1915,-790
0.001375,-2479,555,-1673,-2862,-3027,-689
0.002544,-2643,382,-1680,-2789,-1504,-1209
0.002462,-2570,411,-1611,-2852,-960,-1940
0.002496,-2500,393,-1611,-2643,-3085,-809
0.002482,-2963,250,-1602,-2404,-1449,-1355
0.002475,-2501,167,-1620,-2789,-932,-2032
0.002476,-2658,214,-1627,-3210,-1820,-1130
0.001377,-2790,285,-1562,-2805,-2716,-846
0.003571,-2872,302,-1533,-2222,-2269,-1210
0.002472,-2870,298,-1536,-2435,-691,-2694
0.001384,-2622,133,-1537,-2226,-1277,-2505
0.002551,-2820,113,-1522,-1828,-2738,-1212
0.003574,-3081,-115,-1488,-2421,-1136,-2696
0.001384,-2797,-137,-1506,-2623,-455,-2558
0.003576,-2836,-111,-1511,-2534,-1331,-2073
0.002503,-2882,-177,-1547,-2344,-1411,-1625
0.001374,-3131,-223,-1494,-2398,-60,-2492
0.002484,-2620,-272,-1571,-2552,-1043,-2093
0.002469,-3170,-257,-1487,-2121,141,-1877
0.002477,-2758,-402,-1532,-2539,-363,-2045
0.002468,-2806,-351,-1525,-2558,-441,-788
0.001371,-3025,-455,-1525,-3020,-414,-938
0.003630,-2869,-448,-1549,-3243,902,-2677
0.002522,-2571,-500,-1655,-3282,887,-2189
0.001380,-2587,-522,-1639,-3114,-1700,-418
0.002477,-3056,-527,-1663,-3319,1003,-1810
0.001442,-2669,-420,-1643,-3201,1491,-2340
0.004707,-2503,-461,-1629,-3009,-41,-913
0.001424,-2689,-668,-1690,-3084,-1042,-575
0.001400,-2849,-653,-1638,-3034,1516,-813
0.003639,-2498,-540,-1649,-3299,1408,-608
0.001378,-2444,-636,-1710,-3683,-277,-334
0.002428,-2585,-635,-1719,-3673,192,-472
0.003565,-2260,-673,-1820,-3988,903,-520
0.001374,-2496,-523,-1787,-4021,663,-106
0.002469,-2460,-484,-1797,-4135,116,-226
0.001366,-2397,-500,-1827,-3934,749,-438
0.003549,-2202,-520,-1814,-4119,489,231
0.002483,-2519,-473,-1775,-4304,-336,672
0.001369,-2399,-386,-1802,-3893,557,310
0.003564,-2357,-379,-1802,-3615,721,393
0.002470,-2168,-342,-1814,-3626,-269,1023
0.001373,-2291,-302,-1791,-3731,533,1091
0.003559,-2266,-254,-1797,-3874,1082,742
0.001374,-2031,-254,-1875,-3596,-382,1491
0.004669,-2298,-177,-1858,-3595,-717,930
0.001374,-2093,-123,-1904,-3990,646,91
0.001360,-2160,-111,-1815,-3757,-44,427
0.002465,-2102,-202,-1853,-3403,-509,784
0.002461,-2419,-223,-1888,-3746,1083,602
0.002469,-1887,-221,-1912,-4207,-397,1280
0.002509,-2279,-86,-1869,-4002,-1190,2272
0.002455,-2226,-25,-1857,-3697,356,942
0.002479,-2026,-26,-1888,-3497,143,1027
0.001360,-2184,18,-1838,-3567,-508,1493
0.003543,-2086,54,-1830,-3602,-885,1573
0.002468,-2121,26,-1873,-3627,-337,1069
0.001352,-1877,12,-1850,-3498,-374,612
0.001404,-2167,29,-1819,-3806,-1178,288
0.003523,-2278,97,-1828,-3374,426,-46
0.002450,-2037,9,-1867,-3731,-867,628
0.002506,-2349,-37,-1880,-3821,-25,957
0.002460,-2153,29,-1868,-3691,-1202,1446
0.002460,-2267,120,-1846,-3600,-985,1108
0.002463,-2352,184,-1879,-3059,80,317
0.001352,-1856,54,-1936,-3441,-567,645
0.003547,-2284,89,-1819,-3077,-396,1166
0.002458,-2090,117,-1805,-3036,-1619,893
0.001439,-2295,188,-1806,-2947,363,-576
0.003549,-1984,87,-1847,-3107,-1224,109
0.001366,-2417,30,-1825,-3319,-1596,-174
0.002443,-2388,88,-1838,-3116,329,-990
0.003546,-2160,213,-1861,-2994,-126,-16
0.001402,-2295,78,-1867,-3218,-1500,1093
0.003561,-2374,-37,-1883,-3045,-1640,936
0.001371,-2354,41,-1839,-3073,-78,-496
0.003534,-2060,-4,-1816,-2507,-360,36
0.002454,-2379,-62,-1809,-2930,-1219,542
0.001349,-2395,-27,-1851,-3050,-379,79
0.002472,-2229,47,-1884,-2876,-699,-278
0.002460,-2406,67,-1881,-2897,-1540,-140
0.002444,-2449,7,-1897,-2870,-406,-948
0.002452,-2194,-39,-1897,-3173,-969,-60
0.001453,-2518,-79,-1878,-2996,-269,-67
0.003738,-2281,-108,-1911,-3125,-1174,-95
0.001355,-2532,-70,-1913,-2914,-98,-70
0.002464,-2239,-102,-1906,-3108,-1532,668
0.003547,-2439,-139,-1891,-3136,-799,705
0.001402,-2509,-13,-1889,-3015,1244,-592
0.001396,-2013,-8,-1961,-2953,-1379,493
0.003582,-2699,29,-1926,-2580,-745,309
0.002474,-2215,-76,-1933,-3255,-350,-732
0.001356,-2420,-55,-1940,-3292,36,-451
0.003573,-2297,-51,-1949,-3117,-2661,886
0.001399,-2688,-38,-1902,-2879,-616,207
0.002467,-2331,-116,-1956,-3202,643,-537
0.003610,-2223,-62,-2008,-3166,-434,268
0.002452,-2463,-2,-1970,-3086,-1823,927
0.001384,-2340,-11,-1970,-3108,-1039,394
0.001328,-2353,-7,-2020,-3419,283,2
0.003577,-2104,-98,-2069,-3584,-638,303
0.002457,-2336,-90,-2102,-3363,-1860,873
0.001343,-2423,-5,-2039,-2907,60,-50
0.003590,-2136,-77,-2091,-3732,-413,-694
0.002467,-2505,31,-2107,-3449,-507,-265
0.001403,-2232,-43,-2164,-3525,-1155,-50
0.003569,-2311,-112,-2208,-3706,-1094,1309
0.002465,-2458,-18,-2173,-3805,-668,1109
0.001368,-2051,148,-2162,-3742,-1270,791
0.003546,-2509,217,-2110,-3543,-537,156
0.001359,-2003,66,-2184,-3760,-1966,544
0.002467,-2527,97,-2159,-3589,-702,613
0.002453,-2255,131,-2189,-3711,134,-747
0.002475,-2261,160,-2246,-3450,-1048,271
0.002484,-2355,161,-2255,-3651,-2474,433
0.002427,-2488,180,-2271,-3140,-368,-426
0.002410,-2324,204,-2342,-2952,-268,-95
0.001325,-2253,198,-2324,-2923,-571,495
0.004615,-2304,140,-2315,-3348,-2207,1254
0.001331,-2455,164,-2268,-3106,-860,29
0.001272,-2204,201,-2364,-2842,-108,8
0.003501,-2194,235,-2327,-3157,-1424,572
0.002444,-2551,135,-2324,-3281,-216,-1129
0.001354,-2021,209,-2404,-2397,-1531,173
0.003524,-2738,164,-2404,-3118,-1037,-1035
0.001308,-2308,180,-2433,-2722,89,-20
0.002422,-2460,157,-2495,-2919,-319,387
0.003529,-2118,177,-2500,-2410,-450,1505
0.001334,-2349,163,-2494,-2772,-1710,1373
0.002481,-2342,161,-2472,-2747,141,-1032
0.002510,-2162,215,-2518,-2227,165,-944
0.002424,-2262,116,-2550,-3478,-1345,-682
0.002432,-2484,116,-2544,-2901,-646,364
0.002419,-2225,67,-2564,-3257,-458,804
0.002405,-2408,177,-2593,-2963,446,552
0.002504,-2124,117,-2632,-2855,-155,135
0.002405,-2303,89,-2604,-3053,-1035,70
0.003503,-2281,138,-2605,-3100,174,-264
0.002437,-2148,31,-2647,-3239,473,206
0.001322,-2289,19,-2665,-3215,149,638
0.002397,-2223,64,-2621,-3665,28,222
0.001316,-2168,78,-2733,-3597,-783,778
0.003488,-2166,109,-2728,-3782,661,35
0.002419,-1977,150,-2692,-3730,-828,1165
0.002392,-2415,332,-2677,-3341,633,82
0.002399,-1955,265,-2681,-3412,323,37
0.002412,-2053,220,-2658,-3534,-347,924
0.002408,-2057,138,-2687,-3892,-73,680
0.002407,-1987,197,-2731,-3319,695,794
0.002411,-2006,290,-2694,-4040,357,-392
0.001322,-1817,372,-2828,-3466,-565,936
0.003523,-2080,388,-2759,-3682,-1945,1066
0.002409,-2116,403,-2749,-3114,932,-181
0.001314,-1705,391,-2763,-2915,827,-93
0.002414,-1785,387,-2721,-3111,-1823,781
0.002423,-2164,440,-2715,-2932,154,-202
0.003504,-1752,320,-2755,-3472,-334,-404
0.002488,-1821,415,-2779,-3093,-916,207
0.001383,-1952,376,-2779,-3074,-579,-853
0.001407,-1800,393,-2759,-2767,-1781,-38
0.004651,-2116,372,-2710,-3339,-527,-1069
0.001356,-1782,326,-2747,-3152,-2078,37
0.002457,-2235,316,-2720,-2914,-986,-934
0.002486,-1901,298,-2727,-2656,-1471,-603
0.002459,-2083,271,-2702,-2581,-448,-768
0.003563,-2085,133,-2716,-3652,-2045,-1195
0.001388,-2127,336,-2671,-2759,-1678,-544
0.001370,-2101,276,-2622,-2917,-2507,-495
0.003555,-2166,204,-2702,-2738,-1562,-479
0.002463,-2107,237,-2626,-3275,-950,-2176
0.002478,-1906,256,-2571,-2616,-3363,-841
0.001371,-2416,99,-2541,-3452,-2229,-1768
0.002507,-2319,124,-2567,-3072,-2213,-2052
0.002474,-2405,162,-2487,-2789,-1356,-2813
0.002465,-2292,82,-2521,-2448,-2135,-2254
0.003560,-2454,-4,-2536,-2764,-1961,-1545
0.001372,-2658,-90,-2509,-3233,-2485,-753
0.001368,-2598,-7,-2462,-3108,-1860,-579
0.004706,-2710,-83,-2463,-3037,-1007,-1314
0.001398,-2356,-134,-2532,-3336,-1659,-703
0.001373,-2650,-147,-2494,-3793,-2003,-763
0.002475,-2712,-26,-2462,-3586,-2120,-459
0.003579,-2709,-127,-2451,-3480,-1163,-1443
0.002468,-2642,-70,-2469,-3018,-2183,-839
0.001379,-2857,-87,-2472,-3139,-1595,-1124
0.002476,-2726,-198,-2514,-3644,-888,-1246
0.002459,-2673,-122,-2498,-3570,-2461,353
0.002496,-3058,-19,-2438,-3541,-2330,497
0.002590,-2885,-1,-2445,-3189,-898,343
0.002520,-2860,-165,-2480,-3826,-160,-1105
0.001331,-2560,-64,-2470,-3327,-1882,602
0.002486,-3028,-93,-2477,-4173,-1177,-421
0.003562,-2751,-88,-2535,-3398,-2109,1109
0.001359,-3066,-2,-2517,-3873,-652,-182
0.002489,-2735,30,-2540,-3361,-505,354
0.001493,-2699,25,-2528,-3801,-866,381
0.003573,-2974,74,-2466,-3888,-1723,832
0.002519,-2916,157,-2445,-3627,-1421,475
0.003575,-3037,66,-2498,-3479,246,-1071
0.001361,-2564,18,-2551,-3490,-1538,981
0.002451,-3118,22,-2532,-4236,-706,767
0.001395,-2596,48,-2600,-4265,-321,1751
0.003626,-2696,109,-2575,-4464,-1771,2350
0.001366,-2802,316,-2553,-3534,-839,1832
0.002468,-2704,326,-2567,-3502,-134,286
0.003624,-2667,311,-2535,-3543,-184,-1339
0.001384,-2593,259,-2570,-3042,-1665,-474
0.002473,-2946,72,-2632,-3669,-1736,-225
0.001423,-2848,-12,-2735,-3231,-267,520
0.004654,-2691,84,-2713,-3639,-276,1011
0.001404,-2640,175,-2663,-3462,-1012,2446
0.001378,-2551,157,-2693,-4229,-1929,1817
0.003608,-2700,333,-2651,-3219,-1757,1420
0.001364,-2651,401,-2561,-2841,8,-1017
0.003672,-2566,366,-2622,-2681,-334,-1392
0.001451,-2527,103,-2735,-3183,-1368,-975
0.002495,-2779,20,-2750,-3765,-2327,-476
0.002448,-2754,157,-2764,-3531,-1621,2
0.002492,-2775,117,-2813,-3255,-1381,93
0.002477,-2739,171,-2761,-3079,-1428,-119
0.002461,-2696,122,-2745,-3012,-639,-152
0.001370,-2658,0,-2725,-3458,-2079,1272
0.004663,-2804,4,-2717,-3719,-1307,-135
0.001395,-2704,112,-2793,-2951,-417,-489
0.001405,-2747,52,-2765,-3037,-406,-1749
0.002561,-2505,-5,-2856,-3607,-1395,-1187
0.002483,-2859,27,-2862,-3896,-1664,395
0.003546,-3052,70,-2873,-4253,-1272,76
0.003567,-2795,190,-2896,-3158,-1458,899
0.000278,-2944,129,-2825,-3224,-388,-385
0.002449,-2613,81,-2870,-3243,337,-676
0.001367,-2832,58,-2835,-4056,-1695,-925
0.003587,-3001,148,-2840,-3166,-1157,-64
0.002468,-2758,-6,-2938,-3218,175,-394
0.001363,-2659,-44,-3015,-3175,-124,746
0.003546,-3037,100,-2985,-3421,-369,38
0.002462,-2688,151,-2959,-3369,-900,-816
0.001368,-2848,96,-2978,-3093,-1318,-192
0.003547,-2914,18,-2991,-3105,255,-290
0.001397,-2958,-20,-3061,-3554,1149,368
0.003547,-2713,-23,-3068,-3835,7,591
0.002423,-2724,101,-3044,-3190,-303,941
0.001318,-2696,88,-3057,-3294,-683,805
0.002439,-2865,149,-3086,-3138,712,219
0.001381,-2702,129,-3059,-3029,-269,332
0.003523,-2756,172,-3035,-2882,830,170
0.002403,-2562,173,-3019,-2844,254,506
0.002404,-2789,51,-3097,-3385,-1,320
0.002409,-2775,72,-3073,-3317,350,421
0.002395,-2403,6,-3086,-3484,1257,24
0.001369,-2347,-14,-3158,-3305,982,2154
0.003501,-2747,23,-3196,-4109,333,1808
0.001327,-2528,241,-3105,-3910,623,765
0.004589,-2276,271,-3118,-3624,-184,1203
0.001303,-2324,167,-3121,-3462,3,1891
0.001338,-2451,139,-3136,-3741,1839,536
0.003509,-2152,303,-3101,-3608,1041,667
0.002408,-2267,293,-3098,-3256,-362,350
0.001307,-2103,263,-3133,-3024,-52,80
0.003510,-2130,248,-3210,-2998,754,1232
0.002403,-2318,252,-3183,-3398,464,498
0.002435,-2199,341,-3072,-2768,594,336
0.002409,-2062,256,-3098,-2816,527,317
0.001327,-1893,70,-3140,-3502,663,576
0.002418,-2152,73,-3148,-4368,-256,746
0.003478,-2218,182,-3105,-3489,72,52
0.002412,-1888,260,-3145,-2652,1420,-18
0.001329,-1877,177,-3162,-2956,-9,1281
0.002418,-2192,220,-3138,-3447,929,-232
0.002408,-1614,276,-3196,-3078,-31,-399
0.002412,-1812,253,-3167,-2744,-610,659
0.002396,-2057,99,-3154,-3182,564,-49
0.002414,-1874,145,-3183,-3218,1998,-724
