timestamp,gyroscope_x,gyroscope_y,gyroscope_z,acc_x,acc_y,acc_z
1646821964.210172,-293,-255,553,-572,-260,-525
0.000237,-552,-287,747,-399,-3145,471
0.003602,1077,428,436,2764,2540,1818
0.001407,-1053,-105,585,1801,-2238,7367
0.001340,-177,-287,562,-2136,4554,-2959
0.003511,1162,573,627,1753,-3039,-1551
0.001314,-1094,638,813,5573,1166,-2078
0.004587,1251,-732,497,-453,1356,-4919
0.001300,-861,-251,629,533,696,2015
0.001304,-120,207,679,1885,-2424,5371
0.002406,496,-344,466,1169,3649,2658
0.003480,-230,-197,506,-1430,38,2713
0.001299,745,614,573,1986,-1836,2320
0.002390,-457,427,712,505,2573,-5998
0.003491,842,-2,542,981,-337,-3869
0.002412,-48,-348,622,-1911,-4722,-1090
0.001300,-646,128,723,1079,2679,779
0.004609,1491,37,550,1333,-1428,6275
0.001313,-1369,-146,691,782,-1258,3862
0.001298,-23,311,634,1906,1841,-1278
0.002416,404,164,657,2106,4742,-6135
0.003495,689,-331,657,545,-2902,-2941
0.001323,-439,-431,606,153,-2477,1393
0.002372,80,83,665,2107,3506,2433
0.003463,615,204,643,1675,973,5743
0.001313,-318,-52,587,-1280,-7081,4422
0.002393,-1092,321,655,971,7548,-5105
0.002394,2081,199,472,672,-2826,-3132
0.003467,-985,84,777,729,335,-2998
0.001281,842,-88,561,586,-226,307
0.002375,358,8,550,1206,-4884,6282
0.003456,-1406,-113,780,696,-1174,2138
0.001276,470,-26,554,550,3599,79
0.003479,223,40,586,-1904,1971,-1278
0.001295,515,230,686,799,-7616,1099
0.002401,-1479,320,891,2197,3794,-7562
0.003511,1110,78,603,2210,4334,-1816
0.001307,837,-260,542,406,-5819,6746
0.002398,-1899,26,822,2013,-1640,-192
0.003475,1367,331,477,4044,628,2165
0.001309,-710,-114,514,-619,1709,-296
0.003533,695,137,579,1302,-1429,3711
0.001351,-704,50,747,-657,-3343,-4057
0.002403,-236,122,731,1636,6313,-7260
0.002410,1924,-427,482,-1089,-5781,3507
0.002415,-1725,-288,758,-789,-2464,3426
0.003469,784,243,642,661,-818,5610
0.001307,-1067,320,702,400,4266,-1426
0.001299,659,386,600,2100,-5483,1173
0.004595,-942,81,756,1156,67,-3309
0.001296,99,-267,678,444,4500,-7172
0.002402,1822,-41,596,1665,-3138,1882
0.003494,-2262,239,897,2938,-2957,3486
0.001290,852,-79,460,1917,476,5545
0.002410,-1170,-427,563,-1377,3814,-283
0.002384,1022,235,615,685,-4269,902
0.002388,-689,482,708,1774,3498,-767
0.002397,1368,-187,486,-715,-2532,359
0.001326,-1369,248,809,-475,1369,-2110
0.004574,987,524,678,2494,-3076,831
0.001299,-567,-31,705,1011,2049,476
0.001323,-93,-389,572,-1271,-1653,860
0.003491,-370,223,709,-431,1749,-3294
0.002388,-19,528,805,5749,546,-1382
0.001290,644,-386,592,2549,657,513
0.003505,-1267,-721,645,-1754,3018,-1480
0.002425,1219,44,565,1559,-5261,5055
0.002396,-558,119,730,1457,3217,2624
0.002383,-10,-223,545,149,3043,674
0.002375,580,263,509,636,-268,427
0.002393,-707,484,704,-13,-455,-1474
0.002418,1108,-60,618,771,47,-2189
0.003484,-63,-499,656,-1587,2269,-4433
0.001304,444,108,587,1917,-1234,2771
0.001305,-27,-28,629,-340,-3028,4354
0.003474,-853,17,651,1540,5376,1173
0.002442,709,-230,515,-1761,-1137,-1622
0.001310,-723,376,670,2384,2535,-1661
0.003489,1099,-248,595,198,-1274,-184
0.002442,-142,-360,703,127,5772,-5895
0.002446,1219,561,670,5352,-3222,4834
0.002429,149,150,550,1210,807,8176
0.001347,-382,-503,538,-4462,521,1100
0.003523,836,554,520,1499,-2786,333
0.001339,-924,563,719,178,7263,-9612
0.002439,2743,-81,388,-177,-718,1419
0.003543,-419,-502,617,-3628,-4558,1818
0.001347,-631,656,795,3305,-1507,-904
0.002418,1073,630,606,3548,320,30
0.002446,-708,-290,507,1420,2860,3216
0.002443,540,-461,558,-2444,-780,-427
0.002435,820,533,661,2103,2465,-2648
0.001332,139,439,708,3367,-2927,261
0.004624,152,-428,597,-370,1376,-4073
0.001339,-76,-188,561,895,3143,-2250
0.001351,1183,176,514,2252,-2911,4936
0.004633,-490,-235,575,-1121,897,2745
0.001339,389,101,515,-105,-1005,1942
0.002443,-101,704,738,2875,1507,-4237
0.001335,748,258,667,1487,-217,-3545
0.003564,-310,-348,619,-778,-1894,-2727
0.002499,621,-358,658,-1244,-1899,-1387
0.001340,-466,184,820,1674,-268,4470
0.002441,499,205,669,1431,-1964,3509
0.003530,-316,-45,727,508,2875,-1272
0.001346,-323,65,802,-116,-4800,-2573
0.003527,23,99,803,944,4623,-6875
0.002435,775,-414,709,-110,-1312,468
0.001380,-95,-239,752,-659,-4683,3641
0.002432,-998,500,977,3257,-2127,710
0.002431,553,304,827,3517,2643,-1196
0.002468,-601,-505,691,-1014,1175,-2939
0.002435,195,-134,759,310,-6170,2034
0.002439,-824,-90,965,-304,3963,-4481
0.002418,482,-25,839,577,1503,-958
0.001377,-29,-48,933,342,-5371,2839
0.003518,-691,-114,1006,54,379,-364
0.002418,254,63,886,944,-3508,3517
0.001308,-990,11,901,59,2228,660
0.005732,-141,-37,875,-2195,-2475,-719
0.000245,-859,197,1114,368,2328,-4440
0.001337,53,138,1075,2759,-2596,-134
0.002453,-133,-304,931,94,2898,297
0.003568,-454,-55,1014,196,-2305,3392
0.002447,-120,506,1088,2863,-4471,2283
0.001390,-1066,193,939,1297,4372,-1763
0.002454,640,2,802,-60,-2680,2805
0.003526,-869,0,957,-1175,688,2233
0.001337,-509,265,1059,-516,-2513,55
0.002445,-454,346,1020,1103,3251,-5113
0.003659,515,73,978,233,-2494,221
0.001384,-334,-226,895,-1310,-3250,4622
0.002432,-978,152,1063,-716,-4991,5785
0.001362,-871,579,1062,1279,3726,282
0.002476,-86,414,970,638,1215,-1615
0.003536,-592,435,1054,15,-3156,-927
0.001356,-310,205,1073,533,-1056,-466
0.002483,-481,195,1102,115,437,-2728
0.003487,43,642,1040,3373,689,3548
0.001341,-846,203,985,781,-4251,7634
0.003546,-1355,-80,925,-2654,2013,-1313
0.001387,421,607,940,1148,1946,-355
0.001381,173,593,935,1393,-2336,2977
0.003529,-942,153,994,-1096,1622,907
0.002435,-113,653,1142,-149,-3393,364
0.002444,-554,909,1065,2257,267,-181
0.002410,1,213,904,1269,-2679,2326
0.002493,-906,33,940,-1547,1584,-1612
0.002441,-289,764,1072,1504,1110,-1945
0.001389,-548,620,1075,3117,-2226,-1187
0.004610,-480,-15,1056,1737,-214,151
0.001333,-500,-147,982,332,3450,-354
0.001332,598,327,888,1837,-3528,3577
0.004639,-1192,553,989,2475,-4100,3358
0.001347,-1026,271,930,1089,4719,-2185
0.001333,409,502,879,2019,2370,-1606
0.003554,-56,550,1007,2555,-2370,-1508
0.001362,-1068,-53,938,596,4377,-6176
0.002438,46,-221,859,-193,-4651,-3371
0.002411,26,35,863,3177,1724,1778
0.002478,-515,-200,896,1403,-1777,5239
0.002431,-157,-108,752,2450,-145,972
0.002482,-1493,109,943,2313,1894,-5289
0.003551,131,-101,835,3175,8011,-10794
0.001369,1210,-895,747,581,-3197,-3986
0.001358,-1031,-665,841,2252,-4232,-280
0.004626,-121,-313,826,4372,4733,-265
0.001337,233,-465,746,3418,3551,3091
0.001329,-493,-966,663,-517,654,835
0.003544,-857,-545,741,-137,-2470,-3903
0.002433,796,-566,635,1543,5560,-8523
0.002415,508,-1025,662,79,-3055,162
0.001368,-1319,-637,832,25,1050,-2805
0.002439,668,-451,685,2034,3307,-3934
0.003527,16,-559,691,3180,-6843,4816
0.001358,-1642,-1464,689,-622,5238,-101
0.003565,280,-1068,674,-2360,3065,-5722
0.002453,1155,-243,706,3321,-856,-948
0.001360,-1352,-832,968,2208,-3956,-767
0.002440,470,-1328,652,-542,2925,-4255
0.003555,-861,-693,741,1445,6206,-3924
0.001343,671,-615,686,2034,-9709,4413
0.002479,-1204,-1284,685,-1804,9438,-2945
0.001387,1240,-1097,608,-1486,-4337,5065
0.004713,-594,-307,735,1301,-599,3670
0.001376,-1274,-596,899,-1389,2063,-4374
0.002493,1231,-435,709,-54,3183,-3218
0.002668,-216,-1064,827,-4590,-5221,371
0.001338,-556,-583,865,-1435,2877,-698
0.003545,662,-214,782,319,-927,6063
0.001388,-1243,-209,918,2219,-2242,6356
0.002452,-676,-845,837,-2816,5487,-5686
0.002424,444,-348,883,62,2185,-3234
0.002430,418,-347,888,503,-4604,1810
0.002509,-1053,-620,940,-1774,3311,-1533
0.002415,66,141,901,1011,-318,3031
0.001323,85,154,926,2432,-120,5126
0.004646,-540,-605,796,-2278,-2582,4413
0.001381,-419,-49,893,-680,4259,-1330
0.001324,345,176,910,-62,2922,-896
0.003580,-172,-12,1028,-1176,965,-2081
0.001322,489,60,1098,4,-2391,1556
0.003579,-718,124,1026,2266,-940,5861
0.001340,-209,-119,943,-49,3774,1509
0.002418,101,-66,866,-467,247,3018
0.003556,-1067,-37,945,-1422,429,-946
0.001356,1254,16,846,49,-336,-909
0.002476,-609,83,1118,1232,8437,-3356
0.002422,348,4,1113,1701,-7388,6559
0.001379,-1367,-28,1111,516,5532,-2573
0.004626,1104,-21,961,2050,3536,1343
0.001348,1318,-151,801,1684,-2437,6854
0.001339,-1441,119,1027,443,1271,3756
0.003506,732,373,925,1067,2377,290
0.002463,46,4,1014,-523,1047,-5989
0.002429,583,-16,998,1559,1008,-2849
0.002442,607,-521,993,-1206,1455,-1426
0.001353,325,-155,987,-916,-3755,4976
0.003548,-703,259,1109,2532,-1122,4080
0.003523,-37,-147,964,2282,7452,-527
0.001335,442,-384,973,-345,205,-2518
0.001400,580,-117,985,1323,-1709,-1875
0.002437,124,-336,1074,1184,1728,-983
0.003520,852,-550,987,450,5586,-3012
0.001343,345,134,1163,2957,-5048,5237
0.002445,-302,17,1053,2495,2300,4558
0.002433,903,-795,806,-1287,5687,550
0.002419,715,-91,969,-904,-2443,561
0.003555,13,342,1094,1286,2938,-3258
0.001370,1174,-212,928,72,-3776,-593
0.001320,257,-445,982,-4,567,-2167
0.003523,368,-106,1045,1029,2724,-457
0.002452,1324,-187,904,3,-4739,7541
0.001379,-1668,-502,1074,-2171,4102,197
0.003531,1722,-19,1079,83,-2250,-2815
0.002438,111,391,1292,3918,6399,-5389
0.002444,1524,-495,1049,998,-4447,1081
0.001329,30,-774,988,-2305,1068,943
0.003515,-134,-37,1072,72,-3265,3094
0.002417,930,308,968,2342,2168,3985
0.001333,119,-149,942,-810,1792,3730
0.003593,931,183,950,-319,-3708,4012
0.002425,-721,513,1228,88,4129,-6842
0.001339,1829,235,1100,1560,310,-3774
0.002456,106,-348,1114,-2505,-1232,-2334
0.003559,624,-204,1027,-1526,-5798,7916
0.001344,-151,321,1200,-824,2328,5519
0.002447,981,384,1064,1175,1330,1933
0.001422,-323,688,1182,2019,-1481,-651
0.003572,-489,466,1195,2417,2781,-8822
0.002457,1655,-147,1001,367,2595,-2998
0.001358,178,-419,1145,-1594,-3632,2186
0.003754,-176,485,1207,3869,1487,6506
0.002448,592,590,1045,1718,-2172,9133
0.002476,2,175,1088,-1112,1706,1537
0.001338,454,296,1064,270,-2941,1098
0.001345,-24,554,1178,566,-1047,-5480
0.004653,1126,111,1030,-1328,6395,-10061
0.001339,957,223,1080,21,-10256,6519
0.001344,-1917,310,1360,-169,-87,2005
0.004623,1394,75,1050,960,708,4528
0.001374,-1102,222,1191,-337,-1662,2713
0.002460,760,199,1036,452,-2806,-1691
0.001346,-976,545,1365,849,1238,-7300
0.003561,1821,204,1111,2402,3359,-4596
0.002429,-39,9,1176,-56,-7778,6252
0.001370,-1523,477,1333,1639,856,2018
0.003679,1042,277,1239,1535,-864,-2461
0.002450,-835,257,1173,1625,102,-2545
0.001329,808,21,1041,318,-1482,183
0.002458,-200,34,1186,-311,-270,-1222
0.002435,-155,362,1282,302,1233,-757
0.002443,-677,220,1249,563,-3908,1281
0.002445,-59,-239,1211,-1119,256,-3813
0.002486,341,-75,1277,-528,-2065,-1067
0.003537,158,307,1266,1710,-1875,4908
0.001346,-1103,198,1317,-703,-256,290
0.001344,-534,353,1354,266,-1536,-948
0.003541,-731,543,1487,1558,4737,-3878
0.002431,1212,-6,1306,801,-396,-720
0.002439,-150,83,1369,-714,-6581,1222
0.001394,-1623,808,1558,4146,1811,-2174
0.003531,1154,204,1267,2722,-396,362
0.002452,-2241,-450,1331,-508,-3209,646
0.001330,-275,-62,1248,26,3536,-935
0.002430,434,-202,1293,-2101,-342,49
0.004635,-718,86,1428,-18,-3073,369
0.001377,-593,366,1457,1130,-1171,-2046
0.001515,-719,366,1408,2490,2631,-1282
0.003522,725,-429,1240,-565,-7781,6777
0.001336,-2622,-213,1479,-1982,3090,-1669
0.002398,443,527,1373,1255,1972,-1686
0.001317,-729,271,1485,2298,1259,-2411
0.004591,-1106,-296,1521,-69,-3931,-3083
0.001302,295,-98,1425,807,5781,-1884
0.001303,-66,83,1415,3523,-4270,6087
0.003467,-972,40,1437,2173,314,330
0.002396,-1292,51,1338,790,2154,-2687
0.001307,568,126,1184,1835,-2239,2342
0.003488,-354,-522,1302,-459,1531,1364
0.002414,-832,-405,1328,-1666,3087,-3094
0.003473,71,287,1292,-234,607,-2029
0.001325,-568,120,1387,1902,774,-1916
0.001311,765,-423,1225,-21,-512,-2020
0.003477,-653,-81,1211,1641,994,1694
0.002402,-782,-96,1248,2165,-5267,3560
0.002424,-1749,-410,1350,746,9560,-7974
0.001309,1518,-556,1112,1130,4324,449
0.003475,358,-602,1129,-1443,-1831,3004
0.002388,-771,-135,1310,913,655,-1323
0.001313,439,333,1174,3363,2820,-1089
0.003480,23,-260,1004,1267,2881,88
0.002397,612,-512,882,-541,-1718,77
0.001319,-474,-112,1114,1058,3773,-3759
0.004557,840,-325,962,1047,367,-841
0.001307,-301,-683,988,-805,968,-1060
0.001326,647,-392,1097,599,1455,-168
0.002401,492,-297,1111,1418,-1295,2334
0.004569,-465,-374,1081,1281,2650,202
0.001312,801,-537,927,-2092,6153,-4292
0.001312,500,-166,1023,-416,-2875,-383
0.002400,436,-116,1170,3280,-4570,2055
0.003484,-576,-616,1202,912,5930,-3695
0.002391,1469,-574,942,-965,1328,-580
0.001320,256,-295,1046,982,-4947,5878
0.002387,-78,-329,1052,472,267,59
0.002401,284,-118,1047,1049,8569,-5696
0.003484,1019,186,1017,2121,-6535,6250
0.001323,-935,-640,1089,-1911,-639,-1785
0.003507,825,-616,1124,-1333,2939,-3531
0.002396,535,-144,1177,-622,-2738,774
0.001356,-300,-311,1146,-633,-3,1823
0.002465,589,-216,1131,-535,-3020,4782
0.003554,-418,-54,1201,997,5848,-684
0.001342,270,-48,1231,-709,-6230,1633
0.002444,-867,-195,1207,-372,156,-4218
0.002432,517,-506,1198,835,2215,-3742
0.002453,281,-311,1311,700,1664,-2034
0.002426,101,39,1341,2065,-2553,7589
0.001333,-507,-173,1242,27,-604,6864
0.004648,-269,-261,1183,-1214,2432,1470
0.001370,-23,438,1365,-305,-3904,34
0.001328,22,231,1325,391,3389,-3537
0.003569,580,-445,1235,-3416,-2049,-2967
0.002446,-476,33,1384,-783,-2093,-1103
0.002441,-1045,518,1571,2712,636,2840
0.001331,777,-159,1306,67,2651,2888
0.003554,-782,-389,1296,-2302,-2326,5376
0.002430,-911,495,1491,-13,-183,-259
0.001344,603,698,1513,2500,1298,-5762
0.002437,84,172,1464,3134,-609,-3128
0.004654,-1167,-422,1407,-453,2702,-3384
0.000273,535,-233,1379,1361,-2407,4898
0.002462,-929,-75,1514,-598,1233,4394
0.003514,225,96,1338,1917,1931,4982
0.001333,250,278,1327,-51,-1750,2601
0.002461,-888,649,1539,1649,5597,-4086
0.001348,1297,183,1410,-70,-3765,-4685
0.004617,-826,-26,1530,474,-576,-5078
0.001357,-350,-156,1469,-904,1625,-1564
0.001362,389,-118,1489,281,-2706,7256
0.003518,-581,47,1546,510,1488,5485
0.002439,289,336,1506,1989,-1380,4358
0.001351,-1232,450,1631,514,5197,-8216
0.002440,1233,129,1451,1968,-521,-7498
0.003548,-460,-461,1557,761,-4317,-1853
0.002475,-113,-547,1491,648,5558,-387
0.001362,1025,-90,1413,1422,-3481,11821
0.002474,-1909,268,1670,276,-1212,5201
0.002414,259,130,1479,1147,5693,-2472
0.002442,1026,175,1420,1487,-2081,-771
0.003568,-195,-153,1598,-611,-3574,-4992
0.001359,278,-17,1575,-147,4504,-7742
0.001306,335,123,1579,1683,-2632,686
0.004579,-659,-35,1597,3262,-4234,7987
0.001334,-211,-647,1498,-1123,2145,5439
0.001307,-84,-223,1526,-3136,4151,126
0.003483,-100,538,1721,531,-235,-2791
0.002434,363,397,1698,2936,-1076,-5302
0.002390,15,-340,1704,252,1445,-4729
0.002401,400,-397,1521,-872,-1468,2539
0.002389,-289,86,1617,2291,1986,2988
0.002382,15,22,1633,1816,-2274,3433
0.002424,-302,-138,1395,850,1173,3443
0.003472,1,-239,1453,-1246,3831,351
0.001307,1539,52,1464,-406,-3982,1709
0.001347,-1450,164,1714,494,2688,-7143
0.003648,1101,-80,1451,1985,-361,-5609
0.001335,273,-425,1418,-14,609,-593
0.002423,13,-608,1420,-578,-3692,7571
0.003502,41,-205,1429,-373,3507,5052
0.001296,-651,108,1527,84,-1549,452
0.003523,-151,496,1515,2854,3244,-4119
0.002452,1288,-269,1412,1576,-2028,98
0.001324,-343,-553,1497,-639,1605,-3963
0.002432,286,106,1538,2315,1553,-2853
0.002407,-65,397,1407,4088,-644,7083
0.003487,-13,-710,1267,-2362,677,4566
0.001328,-168,-340,1367,-1939,4089,-1144
0.002407,1225,435,1302,1794,-4322,3269
0.003478,-639,70,1357,-281,1487,-2648
0.001314,1027,-55,1409,-986,1420,-2755
0.001301,147,213,1473,683,-1702,3000
0.004568,-118,-1,1339,707,-3579,5660
0.001327,-207,-308,1237,-1959,4755,-1910
0.002448,338,137,1294,-626,2529,-757
0.002393,472,232,1298,421,-4723,1798
0.002403,-586,221,1475,2684,3026,-2568
0.002407,1349,-111,1326,1534,-663,1426
0.002397,-744,-45,1369,-293,3993,-334
0.003479,1247,38,1159,350,-4838,2978
0.001291,-956,222,1300,657,42,2867
0.002392,-293,42,1230,-701,4540,-830
0.002409,1775,227,1135,-1033,-1337,2641
0.002420,-1472,490,1463,-142,-1834,-1155
0.002447,1294,344,1268,1162,-341,-1528
0.003555,-432,-139,1358,-1981,200,-3297
0.001352,1035,87,1209,-817,-4250,2485
0.002472,-845,576,1426,1657,-2747,6076
0.002442,-147,365,1321,1662,1027,1020
0.001351,-565,28,1383,-1143,-100,-6182
0.002447,-343,392,1424,1782,2380,-5407
0.003536,1538,-196,1326,22,-6765,2580
0.002451,-1231,-346,1476,278,-1848,-572
0.001396,-17,841,1539,4438,-3677,3800
0.002445,-443,566,1437,3622,5487,-2134
0.003531,263,-281,1287,190,-8109,1709
0.001356,-1772,-107,1512,-631,241,-4074
0.002437,636,-68,1510,-1022,-850,-2162
0.002444,-760,-212,1555,-1253,100,-807
0.002431,-349,152,1674,234,-3584,213
0.003538,-515,440,1738,1709,-2773,-801
0.001344,-779,-42,1624,2044,-4336,573
0.002476,-1388,-425,1519,-1442,171,-3383
0.002494,-545,15,1554,621,3789,-3172
0.002447,-168,196,1680,2038,-6130,4348
0.002446,-2217,-82,1855,429,1353,-3370
0.001390,460,-75,1548,566,1290,-669
0.003546,-717,93,1722,1454,-2171,-177
0.002433,-743,31,1724,2517,-2843,-615
0.001348,-1037,-227,1576,651,1052,-566
0.002451,-783,-234,1573,-979,958,1025
0.003524,-573,47,1674,1158,-1255,2101
0.001354,-1367,-94,1706,-203,4156,-2205
0.003536,-394,21,1665,-315,-2748,-14
0.002467,-751,-234,1685,-1106,410,-4790
0.001338,-525,-4,1658,1835,1577,-374
0.002438,102,-12,1512,1445,-1366,4336
0.002460,-1898,-108,1674,396,1197,3051
0.003530,-1009,63,1619,832,2548,-2710
0.001350,135,-224,1506,1854,6873,-5657
0.001348,-485,-457,1572,1013,-1675,332
0.003534,235,-422,1496,620,220,-1527
0.002431,-981,52,1629,4047,2720,1877
0.001342,499,-215,1331,3096,-331,4374
0.002458,-1566,-802,1401,-939,9826,-5341
0.003553,438,-233,1397,1504,-2351,-891
0.002456,293,-706,1268,-1198,2778,-4201
0.001358,-258,-811,1306,-904,3087,1348
0.002430,832,-258,1370,-30,2006,2288
0.003525,-395,87,1367,1954,-94,709
0.001360,243,-26,1218,2417,-4254,3039
0.003563,-374,-918,1111,-1926,11125,-5210
0.001373,1182,-514,1168,-1451,-2363,-1204
0.002452,181,-120,1330,1865,-1550,-1150
0.003552,-1411,-387,1395,2572,6436,-3189
0.001346,2281,-824,1013,662,2823,-1298
0.001311,14,-480,1260,917,171,273
0.003564,695,-348,1128,3185,-5628,6175
0.002439,-137,-980,951,-359,7435,-3475
0.002408,878,-291,994,-1,-1229,756
0.001323,762,14,1052,1999,501,2450
0.003570,-174,-932,1170,-1526,-2555,-1929
0.002439,339,-607,1102,319,2511,-6505
0.001348,959,-399,1089,291,2952,-4300
0.002445,1314,-677,1044,934,-6622,5952
0.003546,-514,-897,1111,-911,-1791,5822
0.001329,-588,-314,1173,695,2604,58
0.002473,1046,-145,1035,1272,3322,-5542
0.003567,-585,-435,1180,1000,-3861,-2340
0.002462,1151,-1027,990,-962,740,-2391
0.002451,-58,-678,1082,-1546,-1312,1832
0.002438,137,159,1173,4055,-6295,4848
0.002458,-1022,-289,1211,2283,7195,-3478
0.001343,1088,-742,915,670,-5226,1716
0.001364,-431,-993,973,-2181,-4658,-1704
0.003537,-905,-536,1103,151,7158,-4677
0.002490,2482,-463,845,-1096,-3565,4878
0.002454,-2987,-242,1306,1214,-2333,3718
0.002447,651,-277,1064,1040,-3366,-1328
0.001379,-415,-600,1011,-1386,7180,-7321
0.002441,223,-676,951,322,-5267,4086
0.003539,-319,-782,909,-3290,-4842,-472
0.002458,-2500,-14,1227,2285,10894,-5883
0.001369,2456,-412,835,2040,-7828,6771
0.003567,-2924,-1014,1118,-1831,4836,-1329
0.002438,824,-708,882,-1019,1516,-868
0.001329,483,-357,799,-251,1486,838
0.001351,-1536,-225,866,549,-2711,5879
0.004585,75,-397,778,-3017,2305,644
0.001300,-507,16,894,-832,5477,-2913
0.002389,733,315,882,1474,-6876,3329
0.002410,-1661,-489,909,-2455,7760,-7559
0.002420,1142,-739,662,-2373,-621,87
0.002389,-380,-76,831,251,-3919,4692
0.002382,-529,11,835,2685,2055,4346
0.002413,-275,-463,643,391,5384,1434
0.002404,-369,-358,719,-2517,-3164,-569
0.001322,-734,426,931,1457,6349,-4722
0.003477,1979,-268,711,1184,-557,127
0.002393,-852,-418,791,-319,1561,-906
0.001294,362,341,787,3191,-327,5921
0.003458,474,-4,622,906,-1036,4814
0.002408,-1049,-480,693,284,4760,1229
0.002404,1081,-114,561,-2624,-704,-2836
0.002381,98,303,634,-131,5329,-3688
0.002401,1293,-21,572,-10,-9045,7415
0.002443,-1080,-297,796,-1529,5546,-2746
0.001312,845,455,736,2274,2248,847
0.003472,627,29,558,1347,-4345,5255
0.002417,-1044,-502,609,-2187,3522,949
0.001304,1577,74,553,-234,-494,952
0.003473,-198,544,729,1719,2378,-1093
0.002385,582,58,687,2128,-296,-1833
0.001288,216,-434,654,-142,70,-540
0.003473,189,-171,675,862,1567,443
0.002393,1257,-182,523,427,-1551,7580
0.002394,-675,24,600,-1379,-606,5182
0.002376,1176,430,588,401,2130,187
0.002377,504,602,604,702,-661,1898
0.002407,125,-174,567,-2012,-2478,-2163
0.002401,278,-148,671,-1539,2379,-4300
0.002382,492,206,654,-261,-422,-1009
0.002381,880,231,581,795,-8408,6785
0.002380,-742,-35,605,1067,468,4748
0.002393,550,-106,531,-1594,6422,40
0.002389,299,321,530,-644,-4468,-176
0.001316,-195,544,597,1509,-1070,-2659
0.003469,532,-48,620,214,4110,-2159
0.001321,1228,-11,485,-735,-2171,-197
0.004570,-802,893,717,3066,-2039,4886
0.001305,116,377,519,18,-3192,6876
0.001312,-92,-286,345,-2555,7534,-1139
0.002387,575,657,426,-746,-3684,1198
0.003482,76,1043,525,785,2028,-4883
0.001283,740,497,493,8,-6446,-745
0.002382,126,151,539,675,-2575,2295
0.003471,-588,73,481,-1239,3703,-472
0.003474,523,475,426,372,-7657,6125
0.001346,-1411,499,491,-1386,3028,-1724
0.002377,282,666,535,824,623,-3372
0.002375,971,771,439,1879,308,-147
0.001300,-1022,471,638,618,-1360,558
0.004558,408,597,513,1958,-3513,2829
0.001346,-693,447,600,1170,2329,-4697
0.001302,1087,496,298,3221,-676,1294
0.002433,-706,227,341,-564,-5927,-157
0.003464,-925,537,431,2483,302,727
0.002401,-226,227,429,-889,-1776,-2146
0.001300,-736,299,553,796,6078,-5580
0.003468,1178,90,450,443,-3819,2804
0.002415,-1080,-139,530,-1229,-4602,-1325
0.001316,-218,325,453,253,-620,-607
0.003487,-792,318,458,916,2909,-1822
0.002432,-440,260,430,1887,-4708,1136
0.001307,-1006,326,472,795,1668,-1868
0.004565,-277,171,544,323,2945,-3309
0.001299,689,97,530,1661,-1810,-1924
0.001300,-669,82,613,2795,-671,-1618
0.002382,-429,70,450,2862,-777,-746
0.003486,-215,-380,307,-415,-307,-3630
0.002412,-1261,-37,430,1200,2727,-2835
0.001306,827,-75,284,1991,-366,396
0.002376,-1124,-483,420,5,2402,156
0.003514,-555,-238,506,331,-143,-3281
0.001296,774,-3,418,2485,-483,-4131
0.001352,-360,-310,343,2197,4479,-1662
0.004571,160,-979,173,-2146,-1730,358
0.001320,-1687,-290,335,-1160,773,-5480
0.003481,953,364,342,4664,4068,-2928
0.001306,-239,-849,310,1162,2040,-367
0.002394,14,-1290,146,-320,-1666,2478
0.004608,-221,-340,256,1681,4436,-2509
0.001338,1195,-296,114,3357,2557,182
0.002499,-106,-744,61,-1544,-1568,-514
0.001374,137,-305,19,923,2380,-212
0.002496,596,-330,38,633,693,1058
0.002707,-449,-643,91,-1974,4114,-4249
0.002462,1451,-547,-1,-969,-716,2061
0.001340,3,-685,60,-2421,-1300,-1661
0.003536,854,-144,23,632,-1893,1776
0.002476,107,-124,-29,957,2337,5462
0.002467,-111,-567,10,-1726,3339,1588
0.001343,706,-412,-26,-2399,262,-2577
0.001318,95,88,116,351,-2381,-684
0.004608,886,-401,32,512,6206,-1982
0.001363,1673,-663,-81,-1611,-768,343
0.002430,-154,631,145,2970,-4937,7401
0.003541,644,246,-112,2087,-847,7956
0.001363,508,-668,-235,-2953,3868,138
0.002450,-17,282,-27,-1312,-1562,-2475
0.001331,1214,751,-92,713,-2460,317
0.003538,663,-287,-46,-2407,3217,-4008
0.002449,1145,-269,-32,-1866,-6959,1902
0.001347,-764,729,116,2566,-684,2634
0.004652,800,48,-182,828,1329,3729
0.001613,695,-419,-365,-3259,-3018,5697
0.001337,-902,409,-15,-971,-4348,-37
0.002467,276,1116,147,4117,-1415,-3081
0.003541,739,-40,-63,603,6254,-6129
0.002452,502,-259,8,-875,-5847,3234
0.001359,-855,472,177,1370,-2772,2217
0.001333,455,307,-10,2459,3469,-104
0.004619,222,11,-270,-427,-5360,3693
0.001358,-559,196,-177,-591,193,532
0.001363,109,327,-38,1161,-1243,2238
0.003533,-148,-87,7,-1782,-787,-1300
0.002451,-809,88,104,-938,2748,-5289
0.002448,777,464,-2,1564,-5109,588
0.002413,-592,27,56,-539,-753,180
0.001332,-24,-24,-19,874,-1113,4550
0.003584,-536,185,-124,527,-4677,5271
0.002465,-2242,269,112,-841,6552,-5870
0.001338,1222,206,-45,1603,-65,-4144
0.003567,-468,-179,86,715,-4878,-1590
0.001323,-1411,-62,203,994,5587,-4164
0.003514,1691,174,-83,1382,-2967,3471
0.001302,-1684,163,60,173,-4234,6382
0.001299,-1073,-81,-38,-267,3548,1297
0.004588,110,70,-132,-1504,6260,-5552
0.001303,44,371,-8,-291,-4338,-289
0.002396,-389,138,63,-149,-2035,-4008
0.002396,-522,132,116,1107,7405,-4182
0.002388,566,235,-49,2752,-6642,6626
0.002423,-1681,-104,-5,-777,1885,794
0.002378,-102,-21,-44,-43,3541,196
0.002391,547,141,-61,-585,-1421,-778
0.002402,-1079,280,118,1481,3199,-5524
0.002391,279,111,-31,2280,-517,-3207
0.002388,-893,-262,30,1863,2079,-702
0.002383,707,-380,-26,1791,124,1678
0.001305,278,-286,-44,1510,3563,1357
0.003484,87,-49,-262,804,-1843,6198
0.002404,-562,-139,-283,-1841,1424,-491
0.003483,-211,364,-35,475,-388,-527
0.001295,999,60,-160,977,2638,-3889
0.002409,-294,-642,-68,-1140,5154,-5650
0.003467,1089,29,-25,674,-6780,2611
0.001289,-687,68,-10,1634,1248,643
0.003491,855,-319,-315,1637,124,6868
0.003491,-418,-660,-358,-2890,3382,857
0.000208,145,335,-130,1198,-4735,-52
0.002394,334,238,-186,1994,4204,-3666
0.002459,533,-698,-210,-1197,2030,-6107
0.002408,1174,-248,-188,2378,-4911,1090
0.002389,-991,181,-115,2799,399,5118
0.001319,1118,-605,-470,-1234,3468,3553
0.004591,-229,-381,-370,-2544,-1949,1382
0.001300,-53,534,-280,1755,1437,2467
0.001312,1551,-92,-404,-707,-3634,1898
0.003496,-369,-272,-170,-1236,863,-2366
0.002389,226,399,-141,744,2700,-2544
0.003465,914,147,-358,952,383,3323
0.001319,136,-505,-431,-3355,-7939,6738
0.001312,-708,79,-278,-1920,4880,-2926
0.003483,1071,654,-321,2971,2982,-596
0.002394,367,297,-303,1980,-5385,3708
0.001323,-470,-387,-270,-1541,3092,-497
0.003485,1099,-69,-306,255,-1283,1763
0.002393,285,322,-381,1817,1176,3223
0.002386,351,97,-590,-991,-545,3837
0.001372,-247,438,-478,-1835,-2468,2251
0.003473,-383,593,-332,-559,1471,-14
0.002378,1020,331,-516,743,466,-850
0.001308,156,80,-417,-1863,1544,-769
0.004562,171,277,-318,-999,-3630,2693
0.001293,178,579,-368,210,-3274,616
0.001298,323,570,-487,1581,2721,3518
0.003488,-32,163,-597,-703,-846,6962
0.002420,-1348,418,-388,-1989,-1126,-2854
0.001306,865,940,-413,1938,4389,-4730
0.003477,582,131,-468,705,1777,-3175
0.002379,636,-12,-499,187,-5568,37
0.002402,-427,566,-341,2939,-4276,3730
0.002403,-212,631,-513,1711,-2024,3881
0.001312,-250,126,-643,-1652,4698,-690
0.002390,178,397,-534,-899,-4229,-84
0.003503,-588,740,-423,-1279,-2186,-2356
0.002419,434,438,-502,-1078,-620,-4180
0.001551,73,443,-358,134,-1690,-524
0.002415,-715,823,-268,1551,-4088,275
0.003492,100,438,-449,2415,318,314
0.001310,-336,80,-498,-250,-7695,1172
0.002406,-1284,527,-323,405,2098,-8097
0.003496,943,725,-368,3569,3518,-4331
0.001316,-629,100,-308,1202,-8757,2549
0.002413,-2000,-118,-230,463,1441,-4199
0.003496,667,187,-373,2494,1676,-6005
0.001296,410,12,-443,3408,-2681,566
0.002416,-1791,-435,-456,344,-4007,-222
0.001331,-589,8,-536,958,602,-2254
0.003473,-687,24,-458,1112,1994,435
0.002412,-1089,-342,-375,-542,-2504,575
0.001366,105,-535,-452,-1481,2412,-4811
0.003490,-552,-29,-326,-705,-2320,-985
0.002398,-37,152,-452,747,-2671,-1266
0.001329,-1319,3,-368,1118,1767,-2171
0.003487,-771,190,-457,2205,-600,2903
0.002414,-585,-405,-574,-1244,1999,-2913
0.003546,-501,-320,-442,716,2362,-2004
0.001382,65,-468,-496,261,1032,-3393
0.001362,-451,-151,-498,2643,2141,-1395
0.003547,159,-222,-563,2966,-1241,4272
0.002487,-1046,-634,-639,-1393,2475,-1656
0.002444,-42,-183,-767,793,5139,-2580
0.002429,724,-297,-878,263,1898,547
0.002463,-997,-734,-763,-2703,1501,-1598
0.002421,746,-95,-811,-862,-951,455
0.001344,-426,166,-600,1427,6156,-621
0.001354,1126,-308,-826,1526,-101,3066
0.004637,-269,-485,-948,-1288,-882,218
0.001344,-377,-99,-927,-327,1533,-713
0.002465,1469,-288,-1080,-1339,3755,-527
0.002450,219,-334,-941,-480,123,-1776
0.002441,-604,302,-764,2966,1546,-1848
0.002462,1213,-239,-1028,619,3243,-1337
0.002454,1035,-794,-1127,1049,-761,2052
0.002425,170,-476,-1046,82,-784,988
0.002430,1252,11,-1293,1029,291,2296
0.001388,78,-72,-1234,-95,-1078,2385
0.003538,350,-148,-1158,-53,2437,-769
0.002521,1048,-227,-1116,-831,1376,-4091
0.001404,615,-199,-1165,-498,-4958,-2593
0.003546,713,-441,-1216,-963,-1647,-1935
0.001359,465,-331,-1188,43,3751,-1451
0.003545,1294,-115,-1330,1323,-8681,8948
0.001375,-1991,-317,-1156,-1748,3091,-1042
0.002524,1738,-231,-1369,-1100,-2522,-1152
0.002432,-102,90,-1074,1431,662,-1189
0.002449,550,-388,-1116,466,-2342,-1139
0.002439,396,63,-1110,-329,638,-2630
0.002456,156,379,-1131,3409,-4991,3261
0.001352,287,-76,-1231,2165,-1616,1274
0.003560,-873,-594,-1349,-1155,2872,-6357
0.002444,1155,-98,-1494,210,-7533,-640
0.001367,-1274,-584,-1256,89,1459,-189
0.003558,369,-915,-1341,-1005,-293,1286
0.002459,-414,-238,-1227,-223,427,2321
0.002457,-335,188,-1187,761,-4665,2490
0.002450,45,-335,-1343,-539,-521,-1050
0.001372,-501,-611,-1462,-938,721,-1835
0.002410,-36,129,-1405,547,-993,-626
0.002485,-1408,169,-1171,701,2648,-3973
0.002400,-56,-67,-1240,2593,-3288,1543
0.002397,-187,-687,-1359,882,3342,-655
0.001310,-172,-643,-1445,751,1226,1778
0.003479,494,-249,-1503,499,-3567,3227
0.002403,-1516,-280,-1464,527,1752,-23
0.002412,-144,-536,-1658,-2144,5030,-431
0.002410,-137,-471,-1697,-3324,1285,1694
0.001310,-522,-51,-1511,-1557,-273,582
0.004574,306,-6,-1525,-1237,2626,-1359
0.001300,412,-3,-1597,-757,1197,2182
0.001300,26,44,-1584,-873,-2254,4252
0.003478,-310,166,-1570,-879,136,2316
0.002406,-290,22,-1618,-1977,2911,816
0.002401,192,146,-1643,-1884,2281,-417
0.002396,562,327,-1610,-246,1052,-2042
0.002415,-96,396,-1489,2006,4648,-5457
0.003490,1653,199,-1673,3149,-3457,3513
0.001334,-346,-134,-1762,1032,3886,6443
0.001317,604,-260,-1915,-2579,-355,5400
0.002447,-313,616,-1788,-807,1247,429
0.003479,998,662,-1891,-159,-184,1405
0.002436,685,120,-1941,-3336,4430,-2491
0.001324,1196,278,-1797,-2596,1204,-1280
0.003488,287,1100,-1539,2646,-5243,4778
0.002423,293,515,-1824,2339,2411,3000
0.001318,1178,-168,-2129,-2211,786,2810
0.003508,610,601,-1975,-844,1440,255
0.001318,418,1221,-1779,2639,1965,-1153
0.002450,1802,365,-2000,666,-8952,2975
0.003529,-1766,170,-1734,-601,8540,-6134
0.001314,4083,270,-2163,3235,-153,5268
0.001313,-1220,410,-1811,616,-865,4479
0.004571,1137,455,-2107,461,-822,2968
0.001337,1038,574,-2329,-782,204,1760
0.002585,1258,670,-2170,536,-561,2770
0.002414,767,262,-2097,-1141,-1207,2136
0.002476,-148,397,-2127,-3140,2054,-5612
0.002420,1741,617,-2268,57,-1444,-1710
0.002405,418,429,-2150,-389,-6496,2096
0.002398,789,523,-2266,1447,3183,2827
0.003551,1306,334,-2465,-310,-5017,8121
0.001391,-1099,385,-2260,-3187,-3977,-1749
0.002441,41,880,-2214,1531,9717,-7767
0.001387,2976,418,-2501,466,-7664,5384
0.003548,-1436,137,-2208,-2912,-4231,-63
0.002452,1319,1128,-2274,1322,1939,-598
0.001388,1047,1437,-2454,3737,-1206,4829
0.003556,-434,348,-2626,-1464,-7012,3529
0.001375,-1523,504,-2490,-2827,4096,-8493
0.002447,2916,992,-2696,-262,686,-3296
0.003541,-47,623,-2517,-544,-10218,4830
0.001373,-882,498,-2381,-1487,-1047,-1653
0.002445,245,1273,-2430,3268,1676,-898
0.003560,642,982,-2609,1170,-5890,910
0.001346,-860,448,-2628,-43,-4025,839
0.002440,64,396,-2696,-2843,-64,-2335
0.002484,18,1025,-2576,860,-271,-5063
0.003555,-352,1184,-2521,3203,-4543,153
0.001353,-530,556,-2590,2722,851,-1756
0.001359,822,460,-2694,1865,-1384,-3596
0.004637,-77,860,-2667,4142,-6807,924
0.001367,-1138,526,-2884,2242,-204,-3697
0.001345,-406,221,-2959,612,-2248,-979
0.002573,-1380,291,-2811,-505,1754,-3004
0.002467,73,11,-2925,-338,-1671,593
0.002460,-600,-67,-2960,-1358,-633,-2270
0.002446,-537,194,-2880,1445,-265,-539
0.001412,-208,282,-2889,1445,-1596,768
0.003532,-966,50,-2873,432,-70,-1637
0.002451,-411,176,-3019,1375,-2750,1832
0.001374,-974,-40,-2981,-696,1500,-4010
0.003595,-570,279,-2911,1699,3603,-3301
0.001342,683,43,-3109,1239,-2332,-705
0.003547,-1663,-59,-2910,626,132,-2302
0.002457,639,100,-3141,2827,1254,1360
0.001381,-764,-158,-3192,-462,2701,-1806
0.002433,-242,26,-3314,147,-3298,1853
0.002476,-690,57,-3263,-503,3380,-5265
0.003553,120,-54,-3365,1255,940,217
0.001369,-137,-229,-3337,-194,1630,809
0.002435,10,-267,-3303,-194,400,-721
0.003583,524,66,-3394,1384,1259,1188
0.001472,-118,-336,-3429,-2107,1543,-1405
0.001330,165,17,-3472,-437,432,-584
0.003513,98,398,-3466,97,687,-2846
0.001415,257,423,-3445,3365,2854,-1587
0.003584,184,-170,-3389,108,-2321,423
0.001354,433,-106,-3482,1724,2645,-151
0.002439,751,-147,-3566,763,2510,863
0.004658,978,-143,-3671,1230,-2443,1997
0.001328,-130,-52,-3676,299,-654,70
0.002453,816,133,-3719,1117,3878,126
0.002480,887,-195,-3735,-1163,-1427,2341
0.001379,87,-260,-3678,-464,-129,-460
0.002433,965,88,-3737,-1080,522,-744
0.002442,1253,321,-3711,334,1502,-230
0.001379,1192,188,-3770,555,-8757,6314
0.003548,-926,165,-3628,-1183,2771,-884
0.001367,1287,166,-3713,-1137,3555,-1497
0.003558,1348,234,-3703,-1350,-8654,3782
0.002451,-1031,168,-3511,316,5156,-4100
0.001360,2271,143,-3652,123,-1160,-3113
0.002451,584,573,-3546,1639,-3681,1017
0.003560,410,478,-3669,3836,-4277,7493
0.001367,357,-331,-3768,-2634,703,596
0.002466,-375,318,-3700,-2359,-410,306
0.002444,935,653,-3757,-438,-4012,1903
0.002529,-41,233,-3639,-1463,3897,-3321
0.002469,1839,265,-3735,-1425,-7165,970
0.002428,-1152,1065,-3401,1203,-2480,-526
0.002420,578,693,-3580,2853,581,345
0.001348,867,-99,-3754,-747,-6162,4363
0.003647,-1845,239,-3560,-2341,2457,-1102
0.002482,1299,876,-3632,574,-1189,-1264
0.001355,-159,684,-3448,1009,-3112,-629
0.003554,-368,327,-3392,1827,136,-1006
0.001337,932,172,-3591,1761,-709,573
0.002458,-574,383,-3496,1272,-1397,-1405
0.003530,453,288,-3573,1928,-3090,442
0.001343,-843,194,-3672,-24,-1226,986
0.003563,433,200,-3777,-1024,577,2346
0.002459,-1173,532,-3516,-387,-1673,1989
0.002437,144,316,-3592,-999,659,-2322
0.001343,159,188,-3548,-345,-987,-905
0.002461,470,273,-3615,-325,-4357,145
0.002437,-621,580,-3525,972,2342,-406
0.002439,55,570,-3636,1332,-5721,3366
0.002464,-1362,405,-3610,96,2222,-1329
0.002446,-75,202,-3551,-384,3426,-3774
0.001333,1142,87,-3628,-69,-354,952
0.004639,-852,226,-3429,1041,-2086,1321
0.001364,645,502,-3606,1874,-389,1162
0.001345,-452,520,-3583,747,2433,1082
0.003571,307,362,-3781,187,-3268,2453
0.002453,-783,267,-3751,-841,3823,-1922
0.001360,800,414,-3701,-2531,593,-614
0.002450,-131,638,-3584,-369,1144,-972
0.002434,555,599,-3598,928,-885,2758
0.003529,-65,295,-3537,-1002,985,1316
0.001356,315,478,-3692,551,-948,1570
0.001345,763,567,-3850,-123,-333,4167
0.004657,-1121,410,-3641,-3588,5317,-2631
0.001352,1861,789,-3766,1508,-756,-327
0.002449,-320,830,-3571,1532,-516,-479
0.002449,376,378,-3694,2996,7945,-1888
0.002458,2889,118,-3982,-834,-4931,2945
0.002458,-1046,595,-3697,1913,-110,3994
0.002460,1533,621,-4040,1019,750,2924
0.001346,592,588,-4021,-243,1935,1223
0.003516,5,758,-3884,-580,3867,-628
0.001380,1902,550,-4037,-1021,478,-1165
0.003579,528,553,-3934,-807,2528,-3164
0.001359,2663,566,-4062,1062,-4923,3042
0.002459,-644,744,-3849,414,-901,1084
0.004716,1648,836,-4087,2171,2890,1335
0.001365,1223,459,-4266,921,-400,6402
0.002456,-89,485,-4070,-842,-6932,-1079
0.001382,1354,1054,-4048,2293,11012,-7326
0.002439,2614,402,-4210,569,-5443,1563
0.002459,-174,340,-4071,1175,-4188,-668
0.001353,1493,841,-4117,2587,-1052,512
0.003526,1045,599,-4240,2014,298,691
0.002446,539,241,-4271,373,-1541,-1972
0.001359,1766,561,-4411,-173,-7196,2040
0.003538,-520,354,-4111,-402,183,-3556
0.002440,2286,220,-4280,1403,-4036,84
0.001364,-291,407,-3985,847,-2267,-1973
0.003593,980,606,-4147,2755,-5601,-116
0.001374,902,23,-4331,-365,-1665,-2073
0.003560,-170,15,-4182,-1004,-3297,-2587
0.002450,674,526,-4156,1632,-5684,-1810
0.001357,-488,384,-4016,3060,1388,-5416
0.002437,803,-47,-4114,2080,-5136,192
0.001378,-180,-304,-4123,1004,-2898,-3372
0.003552,398,-22,-4008,3413,-2199,-1818
0.002448,275,-157,-4256,750,-3428,-136
0.001371,-1028,-323,-4344,-991,-6649,698
0.003595,-835,-39,-4196,-920,2497,-1711
0.002432,244,-52,-4115,-900,-3771,695
0.001367,-481,-107,-4184,-1129,-2793,513
0.003586,-266,-36,-4145,-1796,-3215,-1604
0.001346,-639,481,-4053,539,-2843,556
0.003528,-296,322,-4099,29,-2223,216
0.002451,-881,163,-4182,608,-3409,3001
0.001369,-1345,36,-4188,-1833,1839,-3208
0.003539,206,221,-4230,550,-153,363
0.002459,-937,99,-4073,-1066,-1437,-573
0.001377,-321,263,-4075,871,575,-2993
0.002452,753,471,-4311,3039,-6200,6835
0.001399,-2104,413,-4165,807,-2430,4495
0.004689,-766,269,-4267,-1728,3924,269
0.001367,-668,349,-4372,-2367,-820,-1125
0.001366,-508,481,-4338,-1547,-1687,3281
0.003540,-263,418,-4256,-2917,-1316,835
0.001346,-582,1111,-4047,515,117,28
0.002447,28,1146,-4132,3115,-3686,3077
0.002526,-1045,331,-4248,-247,-209,1931
0.002455,-117,293,-4344,-3763,-795,1502
0.002461,-762,1041,-4180,-1735,-5177,231
0.002468,-436,1451,-4088,2471,1771,-2448
0.002427,-175,598,-4171,501,2595,-6
0.002450,-578,469,-4071,-806,-8129,2567
0.001377,-534,943,-4011,1302,2479,-3438
0.003562,488,767,-4146,1384,-1498,2342
0.002458,-834,492,-4231,-1020,-4523,2006
0.001342,-629,1014,-4183,90,-2505,398
0.002474,-904,1128,-4064,1588,1951,-2813
0.003531,320,454,-4155,100,-2307,-1625
0.002438,-1221,431,-4023,322,-2442,71
0.001400,485,565,-4061,-298,-751,-4021
0.002438,173,835,-4085,2989,-2616,962
0.003538,-687,585,-4060,1737,-5852,1695
0.001364,-1697,591,-3979,2055,2781,-6727
0.003561,807,434,-4171,2643,-1234,-3710
0.001355,-805,-43,-3996,1775,-437,-3885
0.001361,-167,-276,-4020,2100,-351,-2368
0.003560,-128,156,-4019,2604,-1552,-4114
0.002456,65,383,-4105,5861,-150,-1245
0.001367,-153,-478,-4217,1657,-5067,-636
0.003553,-1621,-735,-4204,802,3845,-5113
0.001359,307,-646,-4294,1365,1935,-2869
0.004673,-302,-813,-4251,-660,-799,-1397
0.001338,-218,-662,-4188,473,711,865
0.001363,-194,-437,-4159,1042,-525,-1508
0.002500,174,-226,-4222,2238,1128,-1934
0.003523,267,-644,-4371,858,-2878,2397
0.001355,-785,-1074,-4347,-3212,2133,53
0.002470,-49,-642,-4339,-3116,4070,-2898
0.002478,679,-113,-4243,1129,-4679,-1125
0.002473,-1622,107,-4053,1987,5325,-4200
0.002440,2274,-603,-4394,689,3500,-192
0.002470,-450,-743,-4218,-802,-4665,3179
0.002437,105,-332,-4278,2481,4409,691
0.001415,1131,-539,-4517,-629,-2055,3687
0.002621,-722,-437,-4418,-1977,733,2645
0.003558,-293,-259,-4301,-2015,2127,-520
0.001351,1100,-89,-4346,-2069,3292,486
0.002450,899,-280,-4395,-2700,4653,3423
0.003548,805,-95,-4290,-2901,-10020,6818
0.001420,-674,746,-4077,19,6614,-3096
0.002460,1781,649,-4349,1547,2147,2323
0.001359,394,-78,-4406,-2713,-6629,5837
0.003560,-1190,230,-4180,-2347,7243,-3392
0.002452,3115,826,-4343,1887,-6140,7937
0.001357,-1407,338,-4014,-471,5354,1075
0.003539,1475,169,-4302,-348,2588,-2403
0.001395,1618,750,-4265,2894,-4117,5241
0.004643,-512,487,-4186,1809,1781,4726
0.001356,1644,105,-4582,-1261,2187,4199
0.001359,130,451,-4366,-2495,1661,419
0.002449,1144,816,-4307,316,-2061,2949
0.003541,1081,295,-4372,-2169,2068,179
0.001339,506,250,-4333,-3747,2773,26
0.002483,1395,1158,-4281,-1157,-5846,5614
0.002426,-49,1068,-4181,413,1675,841
0.003535,1793,351,-4437,-1726,2861,-789
0.001373,442,810,-4277,-2257,-618,-2064
0.002430,756,1309,-4195,3409,-2953,-429
0.002437,519,641,-4175,3321,3034,415
0.002512,1574,-99,-4379,-578,2905,-2031
0.003560,1301,650,-4367,1451,-2794,4256
0.001359,275,1070,-4279,2478,-3966,4817
0.001352,1081,531,-4429,468,4725,-3815
0.002442,738,791,-4370,247,-1374,-463
0.003554,816,883,-4403,-190,448,-5662
0.002436,1248,448,-4388,164,1353,-7062
0.001409,1479,576,-4329,1898,-6753,1270
0.003553,420,433,-4354,1761,2255,887
0.002450,621,254,-4389,1218,-4441,-287
0.001360,528,504,-4373,1553,-2275,-4048
0.001366,176,246,-4323,1768,2028,-3666
0.004677,1837,-138,-4433,373,179,-2627
0.001362,293,191,-4203,1514,-2093,-2622
0.002457,587,644,-4173,4899,-287,-3730
0.002452,1846,289,-4335,4782,-4887,-547
0.002476,-92,-368,-4337,2573,-900,-1989
0.002470,54,-392,-4458,457,-1817,-3620
0.002429,679,54,-4540,1202,-6214,491
0.002476,-1094,-620,-4417,-1725,5460,-4609
0.002488,1506,-669,-4474,-1503,-5247,-264
0.002457,-291,37,-4272,1184,2318,-292
0.002455,801,-242,-4280,1412,-5313,2081
0.001393,206,-629,-4386,-1172,-1578,-2548
0.002469,-350,-207,-4360,67,-3999,1513
0.003524,155,26,-4412,370,-525,2321
0.001366,103,-508,-4404,-2882,2479,-1974
0.002449,163,261,-4260,327,-2959,-1613
0.002449,378,168,-4330,1092,-1098,-887
0.002436,-220,-242,-4327,70,-925,1362
0.002455,537,-211,-4367,-591,-2075,2048
0.001370,-22,307,-4384,493,-2496,5632
0.004640,-239,275,-4433,-1106,-657,3516
0.001370,395,169,-4492,-1782,307,-1081
0.001350,-609,563,-4310,-666,-1474,224
0.003566,1207,385,-4506,-1759,-3425,3383
0.001392,-1117,2,-4296,-3945,1145,1347
0.002443,317,811,-4335,-922,-4931,4022
0.003538,197,1166,-4348,1627,3394,-866
0.001343,216,678,-4385,707,-4603,6466
0.003539,24,302,-4507,-2848,-5852,2750
0.002445,-1437,772,-4317,22,4507,-2947
0.001389,1134,1120,-4376,1624,341,-473
0.002445,128,701,-4432,1153,-2946,2248
0.001413,-527,722,-4328,-650,-6658,5288
0.003518,570,999,-4370,852,3884,227
0.002452,233,1028,-4488,1466,-7410,4413
0.001357,-855,776,-4482,-1233,-263,1826
0.003538,-198,322,-4443,-4394,657,-912
0.002459,875,959,-4424,-1125,-4137,-1678
0.001357,-630,1645,-4104,1800,-964,-776
0.003538,603,1012,-4345,387,-7191,5656
0.002466,-1525,488,-4296,-1576,1546,-1754
0.003544,594,947,-4384,1007,-5827,2420
0.001347,-794,768,-4422,-2538,1318,971
0.001363,-603,965,-4224,-1218,-7015,-765
0.002507,243,1374,-4130,1805,3105,-6414
0.002459,-149,1096,-4179,4043,-2301,3075
0.003539,173,662,-4266,1081,-7623,2702
0.001365,-1371,739,-4088,2346,1191,-7414
0.002436,621,1137,-4382,5047,-4960,11
0.002463,-768,263,-4456,-87,-2683,-3306
0.002470,-1195,225,-4417,709,2961,744
0.001350,-74,410,-4377,-1896,-7168,460
0.003546,-1831,677,-4113,907,7001,-6599
0.001358,1764,256,-4423,1447,-7564,1968
0.004646,-1993,263,-4056,457,-1626,-6924
0.001330,120,652,-4233,4078,-9,1105
0.001342,-381,-45,-4367,593,-2661,185
0.002485,-1071,-79,-4308,1165,-1298,303
0.003546,-245,286,-4247,1200,2570,-3951
0.002452,-162,112,-4176,1018,3087,-6966
0.001354,154,112,-4180,2100,-7307,-760
0.001434,-1386,114,-4128,2093,2701,-6180
0.003540,842,76,-4402,3366,1864,2069
0.002454,-600,-405,-4356,230,-2724,361
0.001347,-2036,-48,-4213,1193,2527,-4956
0.003563,1598,-285,-4521,1370,1005,-3246
0.002459,-907,-903,-4207,-840,-792,-748
0.002522,14,-513,-4124,640,-2879,2065
0.002457,-227,-265,-4145,709,7665,-4910
0.001361,807,-101,-4316,1339,-3451,5225
0.002463,-536,-750,-4308,-2253,1733,-1261
0.004664,-670,-183,-4113,-1485,2167,-3928
0.001390,1771,390,-4224,2179,-4503,1068
0.001360,-1475,-195,-3958,823,4815,-773
0.001405,2010,-434,-4282,50,-1448,3702
0.003545,-298,6,-4026,-1132,1248,-1400
0.002438,50,414,-4026,3346,-1540,5117
0.001350,-4,-327,-4241,-315,4183,-2309
0.003548,355,-157,-4075,-316,3800,-2576
0.002449,1632,149,-4093,223,-4250,6063
0.003553,-342,-523,-3978,-1766,1389,3166
0.001366,1201,-269,-4048,-1259,2347,2632
0.001371,226,347,-3888,-2053,-1292,103
0.002441,327,686,-3862,-375,-377,2071
0.003560,1576,-40,-4020,-2809,-890,5711
0.002496,-365,22,-3816,-3630,-1390,3417
0.001371,-32,819,-3734,-881,5935,-880
0.002506,1848,843,-3768,847,-3881,4243
0.003531,522,218,-3654,-125,-2457,875
0.001354,190,326,-3516,-168,5733,-6177
0.001378,2553,981,-3843,2420,-3219,7062
0.003549,35,465,-3751,-351,-5008,11854
0.002478,-1032,327,-3617,-4225,107,1383
0.002472,1162,1499,-3660,271,6123,-5251
0.002451,1890,1053,-3684,141,-6088,1962
0.001361,-34,117,-3481,-3422,-1615,-519
0.003556,959,567,-3437,-1971,-1021,-4088
0.002455,360,1708,-3356,3865,-3975,2626
0.002439,-353,787,-3447,2886,-897,2878
0.001366,507,-207,-3542,-3628,-1199,-363
0.003545,-118,1110,-3271,-754,-828,-312
0.002473,1354,1411,-3294,2187,-2561,223
0.001347,-3,604,-3159,1007,-409,-2909
0.003548,569,1004,-3155,2960,-5092,593
0.001354,174,1164,-3097,2137,428,-6088
0.002486,406,691,-3144,2897,-3820,-5053
0.002527,172,337,-3249,2350,-3916,-2187
0.002529,-639,-118,-3209,454,-4345,-2287
0.001353,-59,193,-3202,1097,4463,-1212
0.003577,105,-229,-3113,-923,-7685,3335
0.002464,-1846,268,-2798,1328,196,-2561
0.002430,802,6,-2999,139,3430,-6801
0.001338,933,36,-3098,1897,-7726,181
0.002573,-1701,185,-2924,1968,-3885,1831
0.003580,-660,142,-2964,2590,3876,-3102
0.001331,-10,2,-2905,341,-825,-3014
0.001410,-1088,106,-2787,2463,-1887,-2137
0.004683,926,-476,-2930,1057,-72,-1775
0.001369,-978,-458,-2789,-388,3786,-2648
0.002458,1248,164,-2963,3627,-3752,3876
0.001461,-1766,-104,-2909,1163,-4046,3747
0.003563,-1092,-332,-2996,205,6438,-3083
0.002498,1371,-377,-3114,-1832,2774,-3369
0.001622,-1586,163,-2775,-806,-2686,-769
0.002467,1328,-58,-2995,756,-2261,2640
0.002460,-1298,-376,-2771,-1181,2280,739
0.002468,114,275,-2845,2595,-2046,2699
0.002421,258,3,-2993,133,-50,958
0.002453,-1188,-205,-2894,211,187,1155
0.001398,1246,-219,-2973,-2523,-4525,-2408
0.003566,-1778,373,-2599,3115,11604,-8816
0.002458,2142,6,-2895,2810,-9894,5962
0.002456,-1490,-509,-2734,-896,3447,61
0.001421,648,-527,-2866,-1190,-3452,1638
0.003594,337,246,-2909,1382,-315,1409
0.002465,220,-81,-2970,761,-4909,5543
0.001386,-804,-143,-2810,-2917,755,1668
0.002455,-304,85,-2667,-3686,1769,-6017
0.003551,1107,433,-2693,437,-4287,-540
0.001471,-756,31,-2589,-520,-1090,-4821
0.002470,1235,-85,-2773,735,-5526,3951
0.001441,-1490,148,-2514,-470,-3226,1329
0.003532,-54,159,-2717,336,3213,-778
0.002457,578,25,-2790,-53,-10682,7915
0.001374,-3003,153,-2384,-1168,2304,-5956
0.002502,2310,189,-2684,161,4632,-3037
0.003622,-28,178,-2518,-679,-9433,440
0.001407,-1506,576,-2289,3490,-5001,1944
0.002407,321,96,-2586,688,-1844,80
0.001369,-1382,-11,-2551,-206,2538,-3121
0.004648,256,373,-2591,1462,-9065,4900
0.001398,-2334,18,-2456,-990,5298,-3048
0.001392,1195,-129,-2531,-1676,-3419,1465
0.003573,-1322,219,-2331,-480,-4950,2432
0.002482,-1126,358,-2314,1876,-2352,1483
0.001345,-413,176,-2420,947,1906,-659
0.003567,-490,-296,-2525,-3233,-1813,1310
0.001403,-1424,391,-2389,-2833,-3956,1014
0.003559,-596,791,-2322,1052,-1049,-2702
0.001457,-761,592,-2254,2103,-1687,2991
0.002482,-1529,39,-2281,-373,-829,2086
0.002453,-186,172,-2394,-434,-1006,350
0.001364,-747,389,-2377,1423,73,757
0.004802,-555,226,-2469,142,-7387,4340
0.001454,-2037,212,-2368,-1583,3033,-312
0.002450,-776,399,-2428,-1665,3233,1592
0.002474,-121,411,-2414,-1563,-3646,6650
0.001365,-2048,358,-2104,-2979,2188,479
0.002449,970,704,-2229,-1091,-303,-332
0.002548,-689,942,-2195,550,-5320,4556
0.002470,-1924,878,-2131,562,217,2811
0.003542,-13,457,-2333,-2134,2737,458
0.001383,-1559,820,-2059,-2844,-1399,1131
0.002473,-115,1221,-2035,1086,653,-189
0.002445,267,418,-2142,184,6533,-3979
0.001351,-640,776,-1927,197,-5994,1820
0.004632,-428,1238,-1956,4006,286,2542
0.001368,-350,416,-2159,1072,1432,6441
0.001392,-1230,195,-2169,-2287,3347,1506
0.002459,-48,1073,-2042,-1179,3981,-3731
0.003531,350,1168,-2039,866,-1598,1763
0.001402,501,317,-2057,-1387,1164,1261
0.002427,-522,639,-1692,-903,877,-49
0.002450,456,1456,-1740,3615,1624,-534
0.003544,-104,654,-1955,2772,424,2832
0.001368,-959,174,-1997,-1152,5028,-6607
0.002451,1241,1039,-1869,1433,362,-7252
0.002439,429,1087,-1734,5887,2374,-778
0.001382,521,-541,-1922,884,281,1031
0.002447,-135,-11,-1764,499,555,-664
0.003564,-524,795,-1616,3879,7399,-6056
0.001370,2872,192,-1937,4534,-1567,644
0.002459,-2,-507,-1876,204,-499,-1139
0.003560,869,-17,-1885,1619,1733,-1769
0.001353,-23,540,-1726,3413,2490,-3098
0.002439,1516,-238,-1891,2678,26,-2890
0.002459,-469,-908,-1657,-1569,1198,-8054
0.003560,1868,-297,-1745,977,-942,-5716
0.001369,1272,-153,-1688,3205,255,2422
0.002452,-361,-751,-1696,1137,-3026,3249
0.002448,-421,-531,-1656,532,2621,-6845
0.001384,1408,-235,-1688,3202,3567,-7552
0.004658,1818,-1207,-1720,665,-4865,-1305
0.001384,-301,-1545,-1614,-2839,-854,-1882
0.001343,229,-46,-1466,1989,-307,2244
0.003541,1034,-73,-1542,2432,-863,1839
0.002469,-689,-796,-1451,-1175,-2415,-226
0.001371,1318,-858,-1683,-2514,3471,-4048
0.003550,634,-606,-1539,-2250,-5027,-670
0.001362,-678,-196,-1317,-781,-531,-4106
0.003547,659,-166,-1270,-776,1204,-1444
0.002465,298,-368,-1279,-242,-4686,5193
0.001358,-187,-747,-1318,-2841,321,1407
0.002459,-147,-195,-1350,-215,-2028,3157
0.001336,203,192,-1402,278,-302,2313
0.003547,-864,-42,-1181,-179,-1154,-989
0.002437,248,-39,-1100,-51,2981,-7896
0.001336,609,49,-1144,1088,2030,-432
0.004637,787,-409,-1309,-452,-6625,8132
0.001364,-2133,-215,-1052,-1169,5103,147
0.001357,1479,550,-1214,1860,-1890,3992
0.003566,-949,146,-1178,413,3189,-403
0.002453,806,-298,-1294,-183,-4844,6569
0.002467,-748,-281,-1151,-4043,3926,-3231
0.001340,280,330,-1094,-936,3017,-1950
0.002446,263,622,-1103,1116,-1505,1973
0.002452,-308,-109,-1056,-1155,-629,660
0.002441,284,57,-981,-1084,1398,869
0.003543,91,234,-1053,23,1792,4553
0.002449,-720,186,-1128,-259,-3385,6356
0.000272,-631,176,-995,-977,5974,-5112
0.004624,1136,470,-967,1479,2736,1229
0.001315,733,-37,-1008,-438,-2597,2813
0.001316,-351,101,-878,-724,1317,-3828
0.003505,450,703,-937,1828,2827,946
0.002405,654,-88,-1149,-114,-2899,6699
0.003504,-426,-186,-1097,-2478,1313,1908
0.001318,619,463,-994,-1839,6197,-2768
0.001307,1094,660,-931,502,-5383,2857
0.004578,273,206,-883,-180,-2838,-161
0.001310,307,137,-874,-141,6902,-3894
0.002398,1421,407,-962,524,-6258,5462
0.002398,-655,319,-860,-125,1403,1538
0.002422,793,114,-871,-1508,1621,-2587
0.002390,545,710,-744,1360,803,-2976
0.001339,565,707,-681,2917,-2340,-789
0.003471,876,87,-784,367,-2626,665
0.002379,91,97,-742,461,5414,-1587
0.001314,1402,547,-760,1740,-6941,4547
0.003492,-761,622,-653,1056,-646,-1114
0.002389,1100,156,-818,363,387,-2475
0.001310,789,159,-863,-312,-3354,3143
0.002408,-649,299,-679,-988,519,-123
0.003502,1193,323,-705,-266,29,-4306
0.002402,108,644,-620,1420,-3063,-1903
0.001394,747,357,-637,1734,-5787,4845
0.003502,-747,-172,-608,-1727,42,-2485
0.002405,726,262,-769,1236,-2179,-711
0.001307,-820,323,-710,345,-4858,-427
0.002453,-965,40,-748,-766,3605,-1543
0.003493,1415,-249,-797,-2231,-59,-1145
0.002410,-420,501,-482,965,-4892,-237
0.002397,245,1058,-491,4667,-7277,6457
0.002404,-1013,-120,-635,-476,-548,-414
0.001322,-468,77,-703,-434,-1591,-644
0.003465,-869,601,-689,-7,63,-1839
0.001307,92,160,-857,-1213,-2533,2378
0.002407,-560,-215,-683,-4471,-4869,516
0.002396,-251,686,-524,818,-2177,1259
0.002383,-550,696,-509,2568,23,2273
0.003501,-1357,-83,-624,-2165,-3627,-136
0.001324,-1229,451,-639,-1554,1031,-1310
0.002384,-36,723,-673,-613,-3593,985
0.002470,-1187,632,-565,1520,-1521,1769
0.002442,-810,211,-618,276,557,997
0.003535,-1179,474,-516,856,-1106,859
0.001353,-279,696,-554,2224,3091,-1490
0.001365,-631,104,-571,166,-782,2052
0.004650,-698,295,-647,-249,-3245,3528
0.001347,-1236,701,-571,574,3989,-489
0.002435,-637,662,-663,806,2444,-333
0.001338,-156,170,-686,-269,2636,495
0.003545,-599,122,-606,-1492,-3724,3143
0.002453,-852,390,-507,-1478,2081,-3943
0.001354,-205,653,-557,3093,6096,-2536
0.003532,287,386,-585,2849,-2437,3549
0.002461,-1433,-104,-538,-193,7329,-1442
0.001332,404,-41,-612,-836,714,1623
0.003557,119,29,-614,266,4463,-1811
0.002429,96,-18,-614,996,5232,-2698
0.001324,554,181,-659,381,539,-608
0.002433,109,421,-612,3833,2468,2960
0.003519,939,-148,-670,887,3779,635
0.002445,-262,-46,-628,125,6340,-3228
0.002442,1031,399,-690,1810,471,-2023
0.002440,821,-145,-679,472,1024,-2839
0.002443,1608,-531,-700,260,4934,-3167
0.001358,1566,-252,-624,174,-762,1858
0.001347,226,218,-561,2619,-3087,3585
0.002486,166,-178,-546,819,571,-3698
0.003548,1167,-189,-529,1560,6796,-6935
0.002456,2548,-619,-669,-500,-5083,-977
0.001387,-91,-391,-426,932,-2819,-1967
0.003532,207,-523,-318,765,3862,-6428
0.002447,1868,-619,-425,1310,-687,-385
0.001344,539,-558,-294,900,-3854,2533
0.003546,1564,-619,-347,193,-4886,3052
0.002430,98,-311,-161,17,-133,-3090
0.001351,983,-128,-259,1608,-1822,-845
0.002459,146,-665,-171,-1410,-910,-2144
0.002453,565,-706,-58,-3989,-2864,-4145
0.002446,1108,-206,-76,-1342,-80,-2273
0.002487,514,-156,-2,-75,-9637,4507
0.002455,-684,-259,119,-1523,1879,-2571
0.002436,524,-167,120,-318,-6042,438
0.002468,-890,-71,161,947,-2671,999
0.001401,115,-650,125,-2087,2112,-3382
0.003537,-91,-78,320,-619,-2858,-431
0.001326,-84,77,302,561,-3221,2674
0.002428,-625,21,378,554,-1287,1435
0.003509,63,-165,336,-1,300,-1310
0.001330,-990,30,373,-115,-2368,986
0.003535,-384,114,231,-1034,-3087,3051
0.002423,-620,21,331,-1996,3212,2039
0.001347,-611,402,485,-1459,-2937,3695
0.002423,-945,538,553,-1871,-38,-743
0.002442,-587,505,574,35,-1492,1262
0.003521,512,70,411,-1349,-4483,803
0.002431,-2189,370,585,-722,2723,880
0.001310,-306,510,439,713,51,2184
0.003519,-1405,299,590,-228,499,-332
0.001324,-799,242,693,791,1155,-25
0.003527,-125,105,636,-113,1059,1087
0.002431,-252,307,537,1467,-667,5224
0.001336,-1605,426,679,1021,-813,681
0.002436,-344,458,604,2031,3710,-1017
0.002431,21,-34,442,-1148,-892,3353
0.001339,-1289,61,686,-1181,1173,251
0.003536,-133,341,627,-803,3219,-1162
0.002460,-873,630,732,911,1888,-861
0.002424,447,76,696,-160,-3962,-682
0.001415,-1116,-43,850,780,6379,-2658
0.003524,1498,-52,614,373,-4987,4621
0.002422,-1472,283,788,2494,700,3685
0.001346,-1587,196,857,1521,2856,-7089
0.003520,724,118,665,2573,7619,-11588
0.002491,927,-435,715,2211,-2643,884
0.001364,-321,-1060,800,-1971,-4139,1053
0.002437,-591,-271,952,981,7218,-2508
0.002436,1039,232,825,4551,-3626,7406
0.002452,-906,-574,779,-112,-2542,2666
0.002434,-373,-246,803,178,5883,-8517
0.001350,1673,-281,717,577,-2260,-4327
0.004642,-1477,-516,1022,-890,2056,-4618
0.001360,1740,-790,787,-1723,-4383,92
0.001343,-593,-136,1046,1509,-449,785
0.003522,24,-56,1003,4092,-6580,5513
0.002453,-1472,-738,967,218,5878,-6410
0.002476,845,-835,785,-139,-808,-1782
0.001551,115,-661,921,-384,-2259,-1115
0.002473,252,-559,962,1361,2774,-531
0.004637,430,-471,996,126,-5205,4574
0.000368,-2156,-175,1179,633,2361,-2096
0.001536,1343,-409,905,-457,12,-2084
0.002491,123,-640,882,-862,2128,895
0.003565,-155,-358,876,-2034,-7574,8494
0.002433,-904,111,883,-669,3192,4030
0.001363,-13,122,1047,-782,-4240,-644
0.003532,-342,148,1133,1601,-1367,-35
0.002459,-273,-638,1008,-2561,1890,-2708
0.001336,341,-307,938,-3278,-1165,-7
0.004692,-865,482,1093,-1004,-4697,5369
0.001352,-676,312,1022,1766,-1533,7346
0.001350,-896,-236,961,-1899,2159,3635
0.002462,-668,163,984,-1721,1950,-1412
0.002478,-409,482,1130,-1146,-537,-2826
0.002434,176,356,981,-168,-4636,1997
0.002445,-1050,166,1109,-1295,234,4047
0.002466,-441,672,1087,-257,-270,8298
0.003539,-983,448,1006,-1697,281,3526
0.001353,-1320,524,1001,-829,-491,1544
0.001425,-706,297,970,-3674,4237,-6994
0.003559,1454,468,882,-2959,163,1504
0.001379,-1208,816,1161,-527,-6994,9200
0.003525,-1787,795,1171,-314,89,4213
0.002445,-1057,856,1088,934,7331,-1573
0.001369,276,495,978,-1935,-6557,5076
0.002454,-2194,385,1168,-3752,6733,-2712
0.003536,1674,651,966,-1583,-2922,-841
0.001405,-2430,1560,1470,3717,2036,585
0.002458,-163,737,1191,2821,5918,-905
0.001325,138,44,1061,-66,-2009,-88
0.004620,-902,424,1182,2208,1404,362
0.001341,351,663,1035,2788,1958,2007
0.002435,-594,410,1049,123,2396,-91
0.002438,-931,661,1184,2611,3012,864
0.002433,233,389,1209,727,3206,-3636
0.002429,371,94,1128,395,8087,-6182
0.001325,1191,64,1114,756,-6490,77
0.003549,-1401,553,1320,4049,6089,-5998
0.002421,1611,4,1053,3837,2530,-502
0.001332,-989,-377,1133,1514,2131,-3040
0.003555,178,-130,1148,2134,2019,-5891
0.002447,791,-354,1183,3223,6555,-5070
0.001343,871,-981,1105,465,-702,-2924
0.003539,291,-603,1150,2066,2456,-4958
0.001367,286,-296,1181,4990,4826,-1737
0.002451,1214,-922,1040,1456,-1845,1768
0.003541,-234,-1036,1190,245,3584,-4417
0.001363,1708,-886,1083,1407,-1263,-5488
0.002460,197,-783,1172,1892,3150,-4538
0.003549,1684,-1044,1066,1349,-1679,2112
0.001370,-88,-1219,1294,-1187,-3436,-1405
0.002469,-123,-574,1389,1555,3391,-9867
0.001350,1738,-826,1063,2589,-712,-736
0.003546,25,-1794,1125,-2356,-2738,1808
0.002445,12,-1421,1330,-2081,594,-2843
0.001344,45,-382,1531,3460,-119,-2551
0.003549,941,-1039,1350,2015,2541,-2867
0.001364,458,-1856,1317,-2560,-2770,2485
0.002449,403,-993,1426,-1955,-1741,691
0.003551,485,-324,1423,2960,2881,2605
0.001351,-171,-696,1359,308,-6323,4900
0.004663,-1107,-1089,1469,-2874,7717,-4796
0.001365,2093,-801,1416,-2630,-3326,1075
0.001357,-342,-547,1545,-1078,-2737,711
0.004635,-473,-631,1597,-1782,926,-1726
0.001385,377,-363,1552,-1739,1523,4401
0.000260,509,-570,1552,-3527,-2899,6050
0.004622,-729,-219,1749,50,-1506,5158
0.001360,-218,-139,1614,-1906,5580,-3262
0.002447,483,-292,1534,-2560,1788,-4249
0.001343,-313,-7,1618,-550,-5378,2080
0.003537,-293,-176,1640,457,7216,-947
0.002476,233,-165,1631,-1378,403,2728
0.001331,808,97,1491,468,-4329,9804
0.003537,-1069,-21,1615,-782,2786,3762
0.002445,498,221,1507,-121,529,1923
0.001325,-600,411,1559,-1454,5927,-4692
0.002433,427,89,1620,-2068,-1525,-170
0.002467,708,-127,1702,-3159,238,193
0.002481,230,260,1778,-20,1544,2318
0.002438,411,745,1684,1959,-2225,5918
0.002423,-870,56,1630,-744,2104,970
0.003529,-299,67,1675,-425,2801,-2476
0.001328,1011,79,1578,78,3565,-1152
0.002449,760,113,1633,1825,-11283,5026
0.002450,-1452,371,1859,2224,12166,-4340
0.002421,2875,6,1586,667,-2522,2324
0.002452,-1912,130,1903,1615,-2044,2669
0.001344,671,-253,1705,-411,2214,2006
0.003538,932,-150,1567,-2485,3889,-167
0.002430,690,499,1694,931,-5797,5975
0.001343,-490,614,1898,1176,-445,-333
0.002428,936,107,1751,-113,3698,-6959
0.003512,172,22,1825,-2,-5418,-1666
0.001363,-488,-224,1929,-1726,3285,-2932
0.003590,1560,-236,1778,-871,-6051,7679
0.003530,-643,222,2004,786,-2306,5844
0.000252,-490,476,2031,1532,7231,-1512
0.002449,938,116,1889,-1096,-6182,-2268
0.003528,-1195,221,2167,469,987,-6723
0.002475,2334,-235,1950,-1126,-1773,-1170
0.001355,-571,203,2099,-287,-2622,3909
0.001349,-378,955,2173,4291,-4532,5844
0.003558,-611,380,2134,291,2171,-1430
0.002491,-1111,67,2161,-150,1610,-5361
0.001341,2142,-57,1838,218,-5492,591
0.003556,-2064,-152,2233,-2643,325,-2213
0.002469,1542,307,2038,250,-2208,2675
0.002458,-1497,558,2289,2110,-6228,3218
0.002433,-839,389,2223,3149,865,-677
0.001403,-100,-244,2056,-1981,-619,-1710
0.002452,-788,-40,2104,-562,-2315,345
0.002453,-430,210,2224,-2154,-3299,-644
0.003560,-1159,343,2309,441,6771,-3934
0.001363,507,187,2162,1610,-5195,4500
0.002465,-2314,-21,2389,254,-2400,-129
0.003525,-274,63,2254,762,3970,-3745
0.001378,519,144,2019,1682,-545,1238
0.001354,-842,275,2028,1174,-5786,8641
0.003566,-2100,208,2205,-1382,3271,2139
0.002450,-691,374,2210,-623,2793,-4703
0.002531,121,316,2194,-256,1213,-4692
0.001402,-513,-304,2173,-1139,1256,-3540
0.003599,530,-239,2055,-1216,-5538,4479
0.002458,-2168,467,2299,2691,2408,4395
0.001375,-1025,385,2225,2210,4058,-2478
0.003553,-330,-132,2076,2253,2716,-1599
0.001398,-1499,-672,2191,-1349,-5,-6159
0.003547,1997,-536,1802,-287,7536,-1991
0.002485,-1824,-135,2205,813,-2518,2932
0.001361,-515,376,2227,4386,1344,1974
0.002444,-48,-207,2103,2058,10652,-304
0.001346,418,-844,1819,-724,-3879,2629
0.003556,-821,-318,2104,413,7022,-7026
0.002481,1312,-29,1940,2594,7226,-4393
0.001373,1052,-482,1816,607,-4106,5654
0.002451,-1726,-668,2050,148,5599,1028
0.003544,1663,-401,1913,-541,5059,-4012
0.001367,639,-359,1935,837,4113,-1733
0.003589,662,-747,1802,-941,-3039,2267
0.001349,32,-698,1863,-2706,5508,-1119
0.002475,1329,-77,1988,1103,5332,368
0.003569,827,-307,2048,1665,472,854
0.001350,852,-681,1947,-461,-1343,-2
0.003568,1199,-494,1933,-123,5504,-1975
0.001339,1885,-350,1915,84,1753,1921
0.001400,506,-87,1992,-32,-4889,4306
0.003543,-699,28,2112,-253,3251,-1271
0.002455,2798,-483,1873,-1622,3209,-2339
0.001363,599,-505,2117,-2544,-2691,-1794
0.003552,1183,-22,2094,1330,-493,-1701
0.001358,392,-337,2116,-1571,-377,528
0.003551,1221,-415,2083,-1312,-4661,5062
0.002449,718,-139,2270,-643,-483,1851
0.001276,92,68,2398,59,7,368
0.002448,610,-150,2302,-1876,-621,-6974
0.002497,968,-87,2295,223,-1086,-2236
0.003554,225,-258,2513,-1849,-2975,907
0.001336,208,-101,2529,435,-2620,202
0.002432,668,546,2462,4053,-941,2728
0.003518,414,30,2347,453,-3046,1417
0.002446,-699,-292,2418,-294,-2473,789
0.000258,51,-246,2481,-3201,-1927,-5260
0.003579,-249,-74,2535,-1184,1315,-2677
0.002407,610,-407,2561,-1695,-7329,1616
0.002429,-1181,-10,2776,-1085,2882,-1996
0.001318,1060,363,2661,1350,-8016,5108
0.003480,-2906,13,2843,803,450,-3563
0.002396,243,-228,2525,417,1979,-1399
0.001328,-515,-379,2698,-2462,-7611,2863
0.003491,-1276,103,2838,1482,6716,-3699
0.002456,483,120,2676,1862,-4684,2540
0.001312,-2430,39,2859,538,-1256,-2911
0.003477,-770,-18,2842,783,3582,-3379
0.001311,499,-527,2657,-284,-1916,4631
0.002404,-1967,-470,2722,-2610,122,4624
0.003496,-67,405,2663,-367,1213,4285
0.001319,-1295,600,2791,-148,3530,-1335
0.004571,-471,335,2789,1016,-4039,158
0.001330,-1540,-126,2879,-2497,5544,-9012
0.001322,236,-228,2824,-619,1452,-1123
0.003486,-139,-161,2764,300,-6304,8451
0.001309,-2758,-58,2903,1527,7276,1615
0.002378,65,185,2689,1435,4109,-127
0.003519,-1219,110,2790,857,2101,-1612
0.001321,-362,-376,2906,-995,3751,-3927
0.002402,885,-669,2739,-1829,-1565,836
0.003478,-925,292,2934,2674,-62,4715
0.001307,-434,371,2886,3064,4960,2998
0.002408,-403,-151,2816,-1330,-455,-753
0.002389,-875,82,2931,217,3261,-1642
0.003472,1001,-64,2823,-483,699,656
0.001312,172,-476,2871,-1492,815,-1009
0.003510,-961,112,3134,1582,2453,-4029
0.001307,1162,101,2922,3010,-4274,592
0.002400,-1170,-721,2952,163,1837,-478
0.003489,888,-756,2815,-672,-2056,6311
0.001331,-1358,-100,3075,-1378,7065,-1381
0.002393,908,178,3122,430,-3692,-955
0.003496,-666,-201,3182,1220,1506,-4890
0.001338,926,-642,3057,-275,-1901,627
0.002563,12,-338,3074,-793,1046,-297
0.003492,-285,-8,3206,1770,-3248,1942
0.001337,-323,91,3094,2965,-1315,866
0.002398,773,-379,2929,955,-1225,1127
0.001375,-498,-343,3078,427,-3296,3346
0.003606,-1232,-560,3161,-2403,855,-4099
0.002424,-63,-94,3221,550,2470,-4432
0.001340,972,-256,3104,508,-4905,1818
0.004658,-699,-514,3209,-196,-6325,2293
0.001383,-824,-170,3193,2782,-1400,2072
0.001339,-931,-324,3102,933,1541,-958
0.002452,-1072,-746,3041,-496,-1605,-266
0.003565,-711,-498,3096,-680,-1897,-502
0.001332,359,-560,3063,-972,472,3483
0.002440,-1258,-658,3159,-3093,276,387
0.001415,-664,65,3193,1794,-3813,1165
0.003538,-1367,59,3124,2048,-2315,3711
0.002451,-1452,-689,2994,-2461,5398,206
0.001366,-139,-450,2922,-3683,-1795,1156
0.003538,-815,378,3057,-234,-2301,1784
0.002445,-1137,184,3053,-634,-414,2084
0.001364,-551,-307,2948,-2046,-3033,5258
0.003579,-2084,-41,3124,-1279,1378,2743
0.001358,-747,86,3100,-1929,-1796,-2186
0.004647,-1389,386,3002,95,5959,-3791
0.001353,330,-34,2797,-1664,-5598,4893
0.001345,-2953,63,3148,-422,6196,1041
0.002416,-469,442,3047,1603,190,42
0.003552,-926,284,3009,1840,3388,-1703
0.002496,-632,-361,2878,-228,-2428,1067
0.001337,-361,-256,2768,496,4255,796
0.001369,-1871,87,2841,312,4204,1986
0.004626,-794,444,2846,1483,-406,5096
0.001372,-1685,-342,2829,-2076,7945,-2198
0.002437,781,-335,2757,-675,3142,-648
0.001426,-135,118,2837,-262,4571,-3930
0.003525,-493,321,2771,2699,-1473,1125
0.002465,-650,59,2714,1168,3274,1225
0.001347,-229,-255,2656,2705,7579,647
0.003535,-102,-196,2777,329,4128,-4729
0.002442,-595,-51,2779,1930,3996,-6524
0.001356,1277,-337,2626,3279,5259,-1190
0.003626,449,-1115,2660,489,7995,-3749
0.001355,986,-461,2642,4124,2258,1741
0.002501,-440,-208,2679,2339,3955,658
0.002444,1287,-777,2495,1296,4137,1983
0.002490,824,-1151,2488,-1253,2105,-1997
0.003535,643,-509,2481,73,4338,-4329
0.001376,1382,-420,2324,-948,5663,-2292
0.002466,691,-1028,2511,-2790,482,-1169
0.002466,1231,-647,2610,452,-3563,-1551
0.001420,629,-418,2607,2591,5329,-970
0.002453,1696,-902,2338,494,2626,4232
0.003563,-441,-1150,2574,-2894,-2978,-215
0.001354,656,-322,2719,1217,3967,-6801
0.003586,2465,-700,2493,1321,1107,-3998
0.003552,1085,-1310,2520,5,-3051,3252
0.000244,-357,-869,2674,-599,640,-558
0.002439,1132,-224,2640,2463,2492,246
0.002456,679,-792,2542,316,-3403,5132
0.003580,690,-1115,2522,-2176,3582,-3497
0.001345,1586,-271,2591,-154,1140,250
0.001369,1263,-259,2562,632,-8094,4169
0.004654,-1539,-807,2774,-1215,1403,-6576
0.001395,1732,-609,2609,-345,-165,-3213
0.001361,575,-772,2708,-1118,307,-588
0.002481,935,-883,2671,-336,-3679,6111
0.003567,-672,-426,2806,-1174,-949,-940
0.002459,-212,159,2859,3604,1102,-151
0.001381,742,-767,2701,535,1127,-1336
0.001362,94,-1227,2796,-3024,1370,-5673
0.004626,739,-349,2802,1685,-6163,2291
0.001349,-390,-319,2777,2040,2312,1046
0.002494,522,-561,2651,1449,1442,3638
0.002462,-516,-579,2744,-1254,-4937,2617
0.002444,-1370,-231,2803,814,8090,-4662
0.003586,2232,-1093,2570,-3641,-2548,-2197
0.001377,-1833,-938,2966,-4652,1576,-3302
0.001361,1817,-227,2698,-452,-5624,4065
0.002446,-1491,-254,2853,-150,-63,4636
0.003557,-924,-600,2772,-2005,1743,808
0.002463,492,-341,2758,-1624,170,1658
0.001375,-1549,-230,2910,-2314,-3354,3277
0.002451,413,-562,2865,-3280,5344,-8420
0.002465,-161,59,2951,765,5427,-5747
0.002452,276,147,2847,3150,-11865,8757
0.003572,-3556,-832,2920,-2445,11448,-2452
0.002461,3052,-773,2589,-1896,-3442,7010
0.000296,-1843,293,3041,-168,2703,5964
0.004581,316,483,2738,-552,-1504,1064
0.001315,324,389,2688,-995,1495,1221
0.001333,-2002,214,3037,-2449,-1902,-2956
0.002428,930,-25,2834,-1566,3246,-5043
0.003511,-1170,-30,2952,-1204,5222,-1564
0.002402,2184,9,2798,-227,-11498,11925
0.002393,-2675,218,3160,663,5276,4653
0.002389,1018,401,2876,-380,3446,419
0.002399,-168,350,2870,11,-3616,502
0.001367,-2979,388,3185,-592,3237,-11389
0.003491,4170,-20,2562,1467,1300,3053
0.002423,-2522,-311,3131,-1879,-4709,4764
0.001346,262,611,3003,3134,2116,2922
0.003471,67,482,2922,2039,3834,5444
0.001328,-305,-287,2903,-2156,-3968,3178
0.002411,-502,212,3042,-1127,1953,-3242
0.003498,1524,600,2927,488,-980,-3307
0.001297,-78,360,2975,577,-5174,390
0.004610,-1078,121,3044,570,-256,3142
0.001303,-172,78,3019,-830,-944,3230
0.001298,-146,290,2970,178,642,1267
0.002429,-458,172,2962,-1814,-1892,-2198
0.003479,11,522,2978,97,-1549,-3836
0.002392,457,314,2958,1746,-870,1628
0.001298,-1460,132,3060,214,691,3981
0.003468,-80,172,3056,-888,2,-2483
0.002404,273,691,3102,2734,-1803,-1989
0.001304,40,372,2960,3782,-2506,-962
0.001318,-225,-278,2779,524,-1783,-214
0.004587,-1997,354,3028,978,1530,-36
0.001313,-376,233,2981,1856,1858,-2926
0.004592,-153,-306,2930,1260,3191,-4169
0.001321,161,-644,2783,-336,-2866,-3210
0.001309,-302,-202,2790,958,-966,-769
0.003513,-497,-103,2871,1646,1095,2366
0.001298,-759,-402,2726,1285,37,900
0.003510,-1272,-203,2792,1492,4362,-4425
0.002404,270,-268,2717,323,3940,-9907
0.001305,663,-529,2638,1837,641,-3687
0.002397,-897,-1075,2645,494,714,-692
0.002415,-664,-776,2700,1482,1690,-1798
0.002421,-48,-163,2683,2991,2911,-753
0.002430,400,-666,2481,2355,879,2634
0.002455,200,-1115,2353,-203,-5017,2751
0.003582,-1478,-599,2504,-812,8556,-11306
0.001358,1103,-399,2407,1398,2380,-3637
0.001366,-546,-1100,2510,-946,-3544,-895
0.003541,442,-1208,2490,-538,1666,-868
0.002445,-119,-490,2478,1648,2604,1132
0.002427,575,-860,2148,655,542,4731
0.002467,-1605,-1262,2294,-2293,-1363,461
0.001372,-138,-796,2478,-2855,7512,-11271
0.002445,2422,-611,2311,1972,1367,1593
0.003554,-93,-1157,2346,-1746,-9968,8607
0.001411,-2645,-474,2589,-398,11250,-3496
0.002418,2561,37,2361,1596,576,178
0.002475,-785,-493,2385,547,-2809,5089
0.003585,256,-1294,2187,-4193,4114,1087
0.001363,1408,-610,2215,-2559,2700,2876
0.001341,-513,465,2532,133,-2389,5351
0.003544,-158,-65,2426,-1315,2071,-550
0.002450,166,-392,2420,-2972,3623,1174
0.002463,1804,-360,2394,-3817,-2498,4708
0.003538,-806,165,2582,-2627,409,2770
0.000233,309,678,2457,994,1806,4019
0.003541,419,-7,2270,-2508,3034,3556
0.001332,-873,65,2507,-3537,466,472
0.002437,1574,249,2446,-1476,772,1325
0.003528,-321,179,2556,-1495,2505,648
0.001349,1161,449,2382,156,133,4503
0.002429,425,647,2446,455,-821,8981
0.003538,-381,717,2499,-628,-2284,7282
0.001338,612,473,2351,-329,7941,-214
0.002454,-351,668,2511,-2146,2221,-3737
0.002448,1698,685,2323,-1515,-1043,-741
0.003536,73,478,2530,-2234,-4345,2223
0.001355,264,694,2451,1248,2110,3200
0.002438,1051,536,2305,-505,312,4611
0.002461,-1505,598,2495,-1331,-4526,2393
0.002460,788,727,2438,-18,8716,-4344
0.001354,1126,348,2356,-437,-6715,-162
0.003540,-565,626,2495,2206,3766,-6163
0.001346,182,595,2548,1580,2216,-3970
0.003530,842,258,2370,2243,-5557,2863
0.002441,-1123,-48,2592,1066,1990,-1365
0.001324,1676,373,2300,3703,2401,-832
0.002424,57,357,2361,2241,-2569,-44
0.003480,-286,266,2408,1824,-5248,474
0.002411,-393,-276,2436,-1170,5349,-8422
0.001325,477,-292,2360,-306,5900,-7491
0.003503,1008,-230,2324,-823,-7793,-1826
0.002397,-1228,72,2612,1036,951,-4561
0.001307,1401,-250,2278,1692,-2154,43
0.002395,-997,-394,2463,936,837,-3493
0.003503,-743,-235,2470,2939,-1684,-2554
0.001312,118,-566,2369,1003,3104,-4628
0.003495,311,-1062,2315,-520,2169,-2764
0.001300,26,-579,2423,350,-4830,-239
0.002419,-556,151,2528,3727,1571,-5092
0.003497,511,-250,2344,2914,-1170,-1172
0.001306,-764,-1081,2262,32,1727,-293
0.003524,-127,-804,2160,-839,-871,-938
0.002403,104,-417,2210,-159,4871,-1985
0.001319,-587,-611,2298,-921,-2812,2133
0.002395,327,-485,2260,299,-5192,545
0.003504,-1346,-205,2471,1466,9465,-4912
0.001378,1758,-615,2117,-733,-6174,3877
0.002416,-1736,-731,2247,-3109,1880,1864
0.001347,-209,-250,2227,-742,-476,845
0.004602,504,198,2284,2205,2805,-2209
0.001337,-1102,-201,2428,743,-869,135
0.001456,178,-592,2214,-1189,-1224,2317
0.003504,180,-794,2129,-3334,1602,-507
0.002438,-506,259,2276,1436,1193,6717
0.002396,752,99,2018,-2049,-4797,9891
0.002415,-2088,-70,2318,-3136,-137,646
0.001288,194,629,2188,320,1551,-65
0.003484,502,323,2122,-600,5177,-4551
0.002429,-208,-228,2134,-2110,-6770,1957
0.001312,-842,73,2248,-2785,-4498,1993
0.002414,-950,396,2253,-118,5840,2964
0.003470,1487,270,2059,7,-6674,9581
0.002416,-1976,216,2278,-2327,-1085,3966
0.001320,-998,684,2216,-2118,2330,-3977
0.003491,834,475,1980,-477,-3402,-1742
0.002452,-2169,338,2291,-740,-1926,1063
0.001381,-62,308,2179,-1094,3347,-2558
0.003564,45,922,2282,2886,-3334,7092
0.002455,-731,750,2227,2735,-7808,7465
0.001362,-1316,159,2165,-1260,2941,-5792
0.003573,-678,655,2080,1358,-1307,-2714
0.001360,-868,493,2107,680,-5409,1270
0.001370,-1361,-173,2130,-2122,3797,-2168
0.004640,-256,144,2198,-1006,782,-1073
0.001360,-682,740,2305,3928,-6979,3436
0.002439,-2303,216,2250,2369,261,-4700
0.001346,-84,-480,1877,-575,2925,-3408
0.003563,-1469,-325,1932,-1599,-3253,959
0.002465,-1450,291,2117,1844,-2387,1015
0.001354,-1599,-14,2220,1518,7413,-5644
0.003535,244,-191,2013,2155,-113,-2161
0.001366,-893,-412,1991,2146,-790,1453
0.002453,-1984,-680,2051,561,2708,-2702
0.003534,11,-326,1816,1331,4586,-2002
0.001348,-991,-186,1858,1522,989,-3804
0.001378,-80,-216,1798,3184,41,-112
0.004669,-1280,-1185,1702,-948,2256,-1690
0.001354,-1050,-936,1702,386,7724,-2772
0.002432,128,-554,1751,545,1763,-3453
0.001444,-1123,-246,1789,2285,1727,-3065
0.003533,1079,-918,1514,1536,3075,1185
0.002463,-658,-1286,1504,-680,1576,1781
0.001359,-696,-609,1575,1179,4349,-3830
0.003545,-971,-635,1670,1466,3907,-6648
0.001357,1019,-1199,1413,1671,3324,-636
0.002460,482,-1912,1410,-2791,5153,-1059
0.003566,1005,-889,1418,955,-813,5205
0.001343,-566,-286,1410,2202,805,4173
0.002455,-420,-873,1303,523,6759,41
0.002514,668,-1267,1295,-3455,6710,-4612
0.002465,1497,-1124,1342,-3928,-1391,1236
0.002436,688,-954,1311,-2619,-881,5452
0.002432,28,-446,1422,-1824,6980,869
0.002445,1546,312,1342,2022,-2371,7829
0.002444,-282,-174,1435,-1114,827,1425
0.001390,991,-664,1319,-4179,5731,-2393
0.004648,2080,-405,1240,-3433,-2292,1849
0.001348,-148,13,1546,-907,1893,-2421
0.001336,220,247,1512,1198,6077,-374
0.002430,1698,-375,1198,175,118,7233
0.003536,814,-626,1238,-2346,-636,6110
0.001335,1039,126,1409,164,4631,4173
0.002429,1365,379,1185,361,-214,4977
0.003515,337,186,1117,-2450,2766,77
0.002452,1063,138,1229,-3448,-1737,1336
0.001344,1325,85,1262,-2445,898,-1416
0.002436,585,298,1424,-962,6393,-1556
0.003553,2739,291,1112,-1656,-6279,6275
0.001344,-1204,315,1411,-1925,3313,44
0.002437,2860,452,1040,843,-1875,6445
0.003527,-986,304,1247,-1757,905,-132
0.001331,849,637,1188,709,3633,-4791
0.002426,1642,351,1216,822,-36,1517
0.002467,517,-155,1289,-1070,1447,-1225
0.002438,1394,432,1205,2887,-1237,747
0.002438,210,792,1207,3575,-1704,2694
0.001343,579,-204,1055,-378,1561,2435
0.003575,1142,-261,991,-1921,757,-756
0.002471,600,508,1132,688,29,-9
0.001364,859,581,1110,719,-2508,-1201
0.003611,483,53,1118,-454,-1821,-3857
0.001348,563,244,1161,1788,-1823,-421
0.002463,608,-86,1002,1631,-1061,41
0.002463,-93,-330,1093,-1808,-74,-2801
0.002435,240,127,1223,234,-862,-3288
0.002457,555,254,1206,3280,-434,-1813
0.001450,136,33,1203,2877,-338,2144
0.003552,-114,-332,1167,-390,-3021,-409
0.002449,337,-26,1141,3146,-1094,-4472
0.001368,273,-26,1080,3085,-1263,-2912
0.003548,393,-449,838,-8,-2344,1757
0.002462,-1114,-518,1054,-1217,-3386,1210
0.001367,-862,-33,1196,-297,-549,-2612
0.003662,185,-229,1129,481,5928,-4731
0.001374,823,-890,1050,-1279,-4858,1087
0.003602,-960,-530,1216,-1396,-2770,-1528
0.001342,-67,72,1143,194,-1124,-138
0.002462,-278,-175,968,1586,-454,6351
0.002444,-701,-834,998,-3976,-52,456
0.002462,-1408,263,1206,-1761,689,-3273
0.001347,284,612,1118,2215,1333,-3696
0.003583,204,-599,1051,-1306,1442,-1644
0.002475,-344,-322,1208,-1210,-2703,2995
0.002468,-282,579,1126,3432,1167,5279
0.002451,-272,287,976,-51,-1802,7665
0.001357,-853,-186,913,-4031,2857,69
0.003527,546,396,941,-1606,-3797,427
0.001372,-856,951,1156,-213,1944,-3984
0.003546,1262,291,941,-1188,-716,-1483
0.001384,-1660,313,1146,-1131,-1652,5305
0.002456,-293,455,1068,-1205,-2025,1539
0.003544,301,495,997,55,2832,1931
0.001344,-675,530,971,-939,-3900,5000
0.002451,179,682,977,-1263,-1208,1391
0.002451,-1168,901,1133,201,4163,-2244
0.003597,220,821,1056,1411,-2053,-1811
0.001346,-34,577,1021,1679,1145,-1408
0.002448,-111,491,1029,1098,-3118,4327
0.001371,-128,334,892,563,618,4457
0.003531,-556,545,899,-145,339,-434
0.001358,-53,1072,895,2124,1983,-167
0.002423,167,215,800,-416,-1948,-61
0.003562,-403,142,907,-1409,-1683,-1545
0.001356,-98,573,1001,501,6868,-6347
0.002431,909,336,835,2139,-6018,3558
0.002409,-1445,203,909,67,-23,-63
0.002452,165,47,778,422,6053,-5532
0.002432,499,182,707,109,-1740,-105
0.002488,-688,343,786,1957,1343,-2983
0.002436,872,-355,677,1138,3208,-778
0.002443,-646,-172,870,115,955,-3195
0.002443,1307,360,736,4439,-292,-3677
0.002437,-143,109,728,3789,3429,-1455
0.001357,575,-774,447,-1267,-1960,-1427
0.004643,-194,-329,537,307,1341,-4853
0.001374,-108,70,596,2934,2226,-5312
0.001337,776,-708,460,657,4849,-4379
0.002462,816,-1046,423,-1097,-2980,2040
0.003531,826,-700,509,-375,-2874,-261
0.001367,-50,-170,510,1710,1681,561
0.002420,-56,-290,375,547,698,-146
0.003555,175,-518,437,-1077,3625,-7749
0.002454,1146,-414,537,670,-2860,-5234
0.001327,76,-873,532,547,650,-2123
0.001341,341,-1103,379,-554,1247,341
0.004620,580,-610,312,1165,-62,4526
0.001338,127,-494,424,163,-3316,3094
0.002429,667,-460,341,-426,2397,291
0.003535,1126,-464,271,-2058,-5747,1977
0.002436,-153,-144,402,-844,-499,707
0.001356,-531,-271,561,-2864,658,-4231
0.002444,692,0,503,-608,2473,-3028
0.002452,818,-489,468,-1405,-6226,3997
0.002439,74,-632,484,-2405,-2169,2866
0.001320,232,7,472,-861,1442,2668
0.004621,-183,231,462,-295,-6407,6167
0.001346,-1262,15,525,-341,-2028,1130
0.001339,135,69,517,-1962,4857,-4122
0.002459,1674,67,453,-1645,3666,1586
0.003573,-1099,316,724,-1420,-10317,4297
0.002483,-631,1013,721,2587,1359,-340
0.001328,1067,267,394,539,4021,4158
0.001356,-463,-228,292,-3632,-4643,8809
0.004660,-1192,531,537,-3263,1052,-327
0.001347,530,1111,592,1411,3574,-1122
0.001335,711,364,398,-875,-1630,4188
0.003566,-1017,237,547,-2623,1321,3426
0.002468,602,878,523,-394,-275,3925
0.002424,-649,804,536,-1833,772,2623
0.002439,-126,423,417,-2584,-2191,2566
0.002431,-82,812,503,-2114,3100,-3356
0.002432,736,1573,571,3600,6514,2190
0.001329,158,599,485,327,-5795,8440
0.004641,-2044,457,628,-2256,7042,-4667
0.001336,2434,1080,398,1656,374,1065
0.001328,579,743,392,631,-1623,4142
0.003527,-1235,569,420,-861,1055,2347
0.002413,833,1023,271,131,4278,998
0.001343,-725,1127,519,152,5611,-2531
0.002448,2082,629,399,630,-3462,970
0.003540,-644,218,538,-1895,2942,-5167
0.002431,1896,781,337,1926,-2151,2624
0.002421,-12,888,427,2497,-911,3988
0.002441,-204,501,421,1820,2087,-136
0.002422,154,531,400,574,2517,-8942
0.001332,769,576,346,3097,-264,-6909
0.002512,928,-140,354,571,577,-3817
0.002460,697,-416,419,-110,-516,-2983
0.002430,913,750,472,6302,-4991,4477
0.002420,22,471,547,4198,-366,-1155
0.001321,260,-276,427,32,512,-5387
0.003544,306,-392,276,333,-2971,-4021
0.002431,359,-524,373,-538,574,-6643
0.001343,463,-569,465,-452,2116,-3692
0.003599,1065,-288,444,699,-7561,3417
0.002452,-1075,-178,695,1351,1872,-3928
0.001350,972,-339,535,2029,-3150,-3062
0.002444,-368,-560,471,203,-1619,-4093
0.003531,403,-625,459,-380,-415,-4264
0.002425,249,-185,545,467,-4048,753
0.001377,-1442,-393,701,687,609,-2656
0.001508,707,-645,599,1674,-1145,-1856
0.004622,13,-683,591,-258,239,-2179
0.001340,447,-566,536,761,-5546,1761
0.001348,-1350,-308,597,333,-1399,-171
0.003518,416,-243,431,-41,-151,-557
0.002433,-1044,-200,550,378,-904,3261
0.002444,-122,-578,489,-2098,-1101,1297
0.001333,-760,-666,645,-3132,175,764
0.003529,-103,-75,697,-1291,-2591,-643
0.002433,-40,163,604,356,-1638,855
0.001347,-967,-90,585,-1467,-267,3769
0.004681,-333,-167,504,-2258,-2913,3561
0.001353,-969,148,626,-1839,-1677,1595
0.001344,-1087,254,646,-585,-235,2481
0.003535,-146,-210,491,-1866,536,-170
0.002410,-770,478,649,-680,843,54
0.001329,310,867,639,2472,-750,5514
0.002445,-1163,63,615,-3033,-8000,8080
0.001358,-1821,336,553,-2444,4693,-1363
0.003525,1068,675,407,610,-3582,1925
0.002450,-2103,572,726,-1607,-1881,-277
0.002430,265,167,508,-2090,1271,-709
0.002446,-779,477,628,-1300,-3635,5399
0.002463,-1875,886,771,499,-135,2480
0.002439,211,534,563,-425,-2753,2444
0.002449,-2110,417,656,-1698,-2911,685
0.001351,-309,455,502,-1384,1797,-1465
0.003561,-919,565,700,-680,-2714,-1044
0.002440,-2094,885,870,1424,-1803,293
0.001324,-673,611,662,514,1502,155
0.002455,-587,584,665,2460,2425,25
0.002436,515,689,580,3752,-9728,6261
0.003540,-3884,570,822,1340,3228,-5473
0.001342,853,317,372,1588,-1119,-3006
0.002427,-1909,48,619,628,1788,-2587
0.003540,-468,-356,581,1012,1255,520
0.001335,-1136,57,687,-753,728,-5101
0.003531,-900,399,688,3644,-1155,-2486
0.001325,-131,-298,488,1506,235,-28
0.002465,-1849,-694,610,-415,3418,-2940
0.002429,-147,-16,486,3022,-2821,601
0.002451,-2112,-131,636,1443,7159,-6769
0.001335,614,-658,476,1404,249,-1912
0.003534,-1173,-740,611,596,2074,-2612
0.002442,-363,-351,566,3374,2040,-4234
0.003541,299,-510,381,2870,1239,-2760
0.001346,-916,-929,272,1087,1238,1926
0.001357,-1053,-849,332,-217,5828,-2889
0.004629,-114,-454,337,1671,3354,-4407
0.001336,345,-832,239,328,-867,-1058
0.002436,-87,-1252,323,-1943,1486,334
0.001325,557,-977,291,53,3057,-1206
0.003517,-413,-642,258,142,-2642,147
0.002491,-1196,-656,212,-26,4565,-1042
0.001364,1095,-1077,114,-2764,3424,-2737
0.001328,650,-623,310,-145,1727,140
0.004628,-659,-463,363,1632,-1362,3987
0.001328,339,-634,282,77,4516,-3756
0.002414,819,-670,186,640,2814,352
0.002436,900,-871,172,-145,-2269,3927
0.002470,104,-850,142,-2954,1325,-388
0.002437,131,-381,111,-1528,2762,2181
0.001335,220,-395,210,-963,-951,4866
0.003530,393,-606,225,-3336,5650,-341
0.002437,734,-330,291,-2208,1676,2252
0.001349,1224,-88,233,-2150,-4520,3402
0.002765,-110,71,341,-1297,4520,1675
0.002516,1191,199,275,-761,-3214,4393
0.002537,-409,255,330,-369,886,3665
0.002434,328,44,238,-814,3879,-111
0.002455,1218,-122,238,-1909,4388,-4140
0.002508,855,283,377,-420,264,907
0.002479,934,-17,250,-1367,-2337,1408
0.002435,269,345,291,2031,1204,2904
0.002426,1079,395,150,1800,920,5461
0.001331,146,-72,94,-1287,2148,3507
0.004646,243,-26,108,-3161,-1531,-649
0.001347,221,217,191,-2150,3063,-4082
0.001338,2035,159,120,-1836,250,3058
0.002455,265,18,290,-2698,-1144,2378
0.003525,187,946,355,2171,-1573,861
0.002419,916,815,308,2787,831,-420
0.001362,346,-334,168,-148,1069,3004
0.002544,750,-392,142,-2238,-3902,-753
0.003531,-416,906,485,1721,279,-6894
0.001344,1310,859,247,4870,6055,-4255
0.001351,1258,-702,177,-699,-7911,3233
0.004659,-2494,-100,522,528,1476,-854
0.001350,2156,263,143,1597,2922,-826
0.002433,433,-55,265,1533,-4235,5083
0.001350,18,-14,329,-44,-2820,575
0.003541,-451,384,291,1367,3053,-3917
0.002430,824,202,238,1015,-3359,-650
0.001358,-34,-533,351,-1291,-1743,-3350
0.003666,-333,-286,530,-590,-2171,-4701
0.002444,841,365,401,2464,-4596,1650
0.001335,-1026,11,482,2025,-506,-232
0.002479,512,-507,346,-288,-1442,235
0.002495,-1766,-348,572,-685,3033,-3534
0.002445,1031,-219,428,1922,-6887,-971
0.002465,-1393,-575,529,-585,4572,-4002
0.002459,730,-353,484,2096,-5616,2421
0.003533,-435,134,677,3508,-560,-190
0.001354,-614,-118,520,3287,-1898,2096
0.001392,-797,-745,376,-1118,-1553,844
0.003556,-1248,-561,544,-2326,6755,-5466
0.002448,991,-204,501,-1719,-399,-1100
0.002455,154,-384,484,-1478,-11131,5717
0.002453,-2823,-239,755,237,5468,-3214
0.001329,1528,-266,450,862,1497,127
0.003594,-1891,-539,558,-2273,-5152,4924
0.001347,-405,-454,398,-1620,797,4111
0.002447,-145,-215,462,-4395,1760,-2221
0.002452,-1095,562,702,591,855,-2446
0.002434,-374,183,585,995,-4318,2242
0.003551,-1040,-406,547,-2221,4510,-883
0.001346,422,-224,518,-1386,2937,2167
0.002464,-419,431,549,-9,-8408,8147
0.002436,-910,485,420,-574,4414,1317
0.002443,394,322,370,-2251,-2447,4164
0.003543,-1943,769,624,-1964,2396,-972
0.001347,426,599,535,-1147,1704,-3139
0.001348,-305,252,478,-2316,-408,-772
0.003542,-122,286,471,-1730,-2675,3730
0.002439,-188,683,529,-286,-1798,3472
0.001325,-302,840,500,2425,-7,5278
0.003517,-1346,601,487,-491,2713,-473
0.002465,338,744,404,790,-5734,-978
0.002437,-1933,749,649,202,2989,-7217
0.001373,2284,280,286,848,5755,-2126
0.003574,-432,365,413,1794,-7888,5880
0.002447,-2126,736,628,3259,-1933,3093
0.001343,1069,179,373,1014,6870,-2728
0.001327,-357,158,203,27,2241,-2503
0.004654,575,628,228,1513,-4576,1845
0.001348,-1098,292,442,116,4927,-5251
0.002450,1016,153,262,1948,-1657,-1932
0.002443,-416,32,319,2488,553,-2538
0.002436,66,-279,217,1235,748,-2510
0.002448,726,-375,57,-107,537,-1667
0.002441,-792,-150,201,857,1497,-1658
0.002463,367,-47,225,1502,-1873,-3375
0.002483,-720,-175,327,3991,7330,-6932
0.001345,1641,-920,78,1433,-2334,-184
0.003557,-865,-997,226,-287,2204,-4121
0.002455,985,-352,108,2806,-1097,921
0.001349,-151,-409,105,1317,3536,253
0.002429,859,-729,4,13,-2349,1221
0.003543,168,-438,107,449,-983,248
0.002452,-370,-507,183,-134,1840,-5483
0.001342,1289,-698,47,215,1085,-6864
0.002469,-480,-867,199,-1211,-864,-4797
0.003527,1171,-806,53,-699,-863,3240
0.001350,27,-764,144,-781,-1758,8883
0.003559,-349,-427,261,-195,-1647,2684
0.001345,-382,-311,262,930,4339,-4790
0.001397,900,-510,218,598,-5780,-2459
0.003550,430,-857,233,-1693,5288,-6630
0.002434,945,-717,318,-446,-4549,886
0.002448,-1490,120,346,2155,-2867,5854
0.002459,597,-395,140,-663,2555,5217
0.001353,375,-741,168,-2761,-3452,5507
0.003659,-627,-124,226,-630,-3087,2241
0.001346,-38,-6,254,-2074,500,-4097
0.002457,471,-171,310,-3270,3615,-4345
0.002464,358,14,453,-1136,-6279,4117
0.002426,-1608,176,545,61,1352,2952
0.002440,926,57,269,-1701,1218,5089
0.002450,-598,25,274,-2520,-4942,7065
0.002479,-1257,532,520,-1675,2554,-388
0.002419,702,655,426,749,-173,-275
0.001460,-542,254,471,-1996,7223,-5973
0.004664,1015,183,373,-929,-2139,5176
0.001353,-1961,477,686,1042,-6462,5724
0.001321,580,314,423,-15,7165,1067
0.003546,-256,207,192,-2475,1860,4465
0.002439,385,501,347,-1271,-3557,6562
0.001355,-1682,850,704,-1967,4898,-4362
0.002476,1886,909,236,1113,1770,4033
0.002460,-622,258,429,-2259,-1814,5463
0.002450,-855,343,679,-1889,2609,-2704
0.003607,1026,1252,532,1125,2328,-1051
0.002466,488,815,363,432,-1822,5096
0.001333,-786,277,393,-895,2248,4663
0.002463,49,634,474,-1714,123,-1271
0.002494,-346,1098,545,2883,11522,-4026
0.002459,2007,147,378,-1422,-7090,3580
0.002441,-990,188,572,-348,7095,-4360
0.002440,1975,760,489,2707,-4927,5406
0.001335,-393,794,448,2003,2287,3608
0.003531,216,112,306,-989,3910,-662
0.002426,254,563,475,573,1799,-4404
0.001372,1267,536,454,387,1023,-5261
0.003531,974,184,414,1476,-86,-775
0.002465,409,-41,480,-1296,-1683,-1405
0.001348,512,549,523,3612,-695,-1086
0.002429,645,346,532,2669,-2788,487
0.002494,-256,-272,467,-488,7162,-3790
0.003567,1378,-343,430,-2270,-5414,-3032
0.001349,6,520,719,2934,317,-5272
0.002620,506,232,700,2729,2569,-3462
0.003648,972,-205,661,1637,-1328,-606
0.001386,653,-25,769,2372,-1431,-2215
0.001348,962,81,638,4347,-1655,-3326
0.003567,342,-409,547,2032,-4522,-2152
0.001344,60,-460,517,2142,-2646,-1268
0.003579,-563,-758,604,-1166,2932,-5982
0.001346,1018,-650,629,981,-1180,-735
0.002454,-338,-856,855,-860,-3389,-2843
0.002541,597,-757,744,-722,-1669,-4167
0.002435,272,-591,689,90,-2334,1735
0.003553,-490,-579,705,1108,-4750,5093
0.001365,-932,-589,792,-1624,687,-3075
0.002473,22,-253,826,687,-306,-1200
0.003539,382,-791,688,-668,-6591,2829
0.000287,-1287,-982,909,-2431,8214,-7361
0.002454,1707,-195,833,449,-5962,1700
0.003548,-1524,234,829,1841,-4197,3939
0.001354,-787,-603,666,-1778,1065,1091
0.004638,448,-523,561,-3452,1211,2301
0.001353,-1384,330,820,-765,-1377,4322
0.001346,509,108,665,-1645,-2626,3270
0.002463,-1392,-123,899,-4228,1906,-2213
0.001386,495,727,820,-5,-4095,3773
0.003537,-846,341,788,-1243,-868,1481
0.002448,-971,-33,751,-3336,-1527,1088
0.001343,-343,417,658,-3297,1243,2294
0.003542,-722,850,848,-667,-999,791
0.002440,-337,870,904,1958,-5082,2045
0.001329,-1700,410,866,893,1895,525
0.002452,-110,130,706,-1060,2767,-659
0.003540,-16,298,761,141,-2639,5477
0.002453,-1254,608,704,-1498,-5061,6283
0.001383,-724,1101,711,-888,686,3489
0.002499,-734,1109,887,-108,-152,1168
0.003538,-1145,798,825,-949,1861,-3683
0.001341,75,570,729,-970,-6332,-1384
0.003549,-1343,414,898,-1154,-734,-2467
0.002481,-115,679,884,1138,-1380,1624
0.001352,-1049,669,837,1205,-3621,5972
0.002439,-1681,619,824,1079,1496,1689
0.002466,-788,243,761,-1731,-826,-4602
0.002485,-1376,804,1014,1835,1600,-4948
0.002425,615,147,777,2170,-107,-740
0.001329,-1902,70,982,69,1840,-5428
0.004633,391,969,958,6063,-4342,1905
0.001386,-1052,285,848,3879,-1585,1134
0.002455,-1859,-665,741,-320,5763,-3891
0.001581,-178,-227,577,-250,2244,-5250
0.003551,-358,208,776,2828,-3555,672
0.002434,-1268,-322,943,63,914,-3531
0.001345,-497,-599,917,931,4662,-8078
0.001337,-570,27,959,4781,3082,-3139
0.004626,733,-968,564,1717,-4205,4256
0.001350,-2954,-1218,738,358,7830,-735
0.001386,940,-693,542,-670,-1223,-4397
0.003546,-990,73,917,4461,5738,-7782
0.002465,1313,-1373,625,1668,-29,2812
0.002456,-1170,-1811,681,-2224,362,-1549
0.001355,-1065,-415,867,2551,7230,-3754
0.003539,904,-238,682,2032,-892,-646
0.002463,18,-1206,537,477,4635,-610
0.001373,1228,-1341,510,-2197,-10481,5912
0.004700,-2385,-588,782,-1501,11571,-6378
0.001343,1572,-605,569,261,-1162,2454
0.001343,-817,-1159,763,-2582,575,392
0.002443,783,-1237,720,-4084,2028,-981
0.003523,957,-168,748,-227,-911,4567
0.001362,-435,-112,772,1741,-49,3398
0.002445,126,-596,667,-2403,-1105,2072
0.001349,-801,-514,871,-2613,9376,-5910
0.003533,2630,-259,694,393,-3774,2126
0.002439,-875,-534,886,-981,1360,3856
0.001335,282,-474,802,-4658,1599,764
0.003532,1341,480,809,1720,-4541,7010
0.002448,-1157,169,994,1291,2615,1879
0.002491,1146,-706,644,-3155,2142,-487
0.001370,-100,-24,944,-2882,1498,-2558
0.003540,1043,-17,918,-1119,-3605,5876
0.002444,-960,-441,960,-3825,7078,-713
0.003526,1891,299,892,-891,-392,2905
0.001337,60,953,1060,2203,-2512,5080
0.002424,-285,59,971,615,-2348,5136
0.001350,260,-179,772,-3287,8423,-3711
0.003519,618,254,984,-1592,97,-1235
0.001337,690,500,1103,111,-1542,-155
0.002436,8,-74,1030,-1534,6467,-860
0.002468,1616,155,920,-135,-5492,8758
0.002542,-687,458,1098,655,1806,1425
0.003575,309,704,1118,3078,4325,-1909
0.001335,2421,143,795,284,-1038,5016
0.001380,-1641,-18,1112,-2981,-1098,-529
0.003556,1248,306,943,-1720,5181,-5265
0.002432,579,489,1134,421,2936,-2380
0.001327,419,97,1099,938,-4808,3380
0.002549,947,-216,1060,-2531,-1645,923
0.003531,-259,354,1309,968,886,-978
0.002465,1701,495,1063,1833,676,4088
0.001384,-1414,102,1214,-500,-1583,-3116
0.001486,1042,427,1181,2645,-802,-4290
0.003547,268,-102,1262,-52,2844,-2889
0.002462,249,-618,1301,-919,-2610,-1776
0.002460,377,83,1424,1342,-2770,719
0.002477,-110,192,1353,2138,868,302
0.002450,859,-257,1222,392,-4420,4435
0.002444,-1207,-49,1457,-274,279,-1651
0.001353,570,56,1407,46,1488,-3651
0.003544,-78,-186,1565,-326,-2228,-1489
0.002492,400,-348,1545,177,-3298,-697
0.001335,-754,162,1725,456,-228,-491
0.002545,636,130,1542,2144,-5070,2628
0.003582,-1664,-179,1737,-159,-2221,-2525
0.001358,-566,-374,1723,-538,4573,-4792
0.004684,806,-382,1729,-540,-1919,-1589
0.001360,-828,-113,1904,1994,-6289,3701
0.002463,-1006,-132,1826,844,2845,-629
0.001373,-579,-239,1867,1237,2040,-2816
0.002454,52,-58,1840,2209,-5759,2206
0.002422,-1094,-586,1821,-2082,-352,886
0.001327,-456,-492,1746,-1065,-1039,2359
0.003501,-817,106,1865,277,-1535,1914
0.002424,-2026,246,2062,251,4915,-5087
0.001314,948,-297,1720,234,-1817,-1290
0.004598,-1315,-673,1879,-1401,-2897,2399
0.001336,-615,-475,1893,-2391,-255,4641
0.001310,-889,209,1960,-869,1540,4184
0.003483,-769,307,1888,206,-1620,3949
0.002417,-1570,109,1927,-2132,5070,-3532
0.001315,265,-39,1809,-1912,-728,-1671
0.003508,-1263,-108,1899,-1285,-129,-474
0.001325,-1144,10,1990,-597,4843,-2501
0.002405,1275,351,1804,1285,-1535,8615
0.003500,-998,-35,1847,-999,-4556,10127
0.001321,-1611,239,1921,-2415,2463,1312
0.002407,-269,880,1782,-550,9143,-4478
0.002399,573,561,1789,-1422,-6414,490
0.002410,-1470,181,1978,-2428,335,-6418
0.002399,1128,299,1884,482,3534,-2369
0.002399,-382,358,1796,2744,-606,5973
0.002426,-1324,-108,1775,-753,-2194,2560
0.002424,-1273,299,1799,376,6183,-2641
0.003486,691,361,1712,2872,4848,-2366
0.001336,1289,-121,1746,2043,-8138,-743
0.001321,-2044,324,1978,2962,9500,-8493
0.005676,2454,-266,1554,2908,-1001,2431
0.000222,-2525,-311,1846,1527,871,-196
0.001314,713,-179,1743,1919,4190,-5274
0.003508,1264,-307,1589,1796,4177,-3013
0.002404,948,-281,1473,2268,-7416,6809
0.003494,-443,-459,1640,744,4789,-3619
0.001321,-483,-382,1742,1855,3146,-6968
0.001320,641,-251,1574,2793,-2451,-6218
0.003506,157,-1366,1591,-1174,1087,-7400
0.002417,1413,-1160,1519,1909,-1492,5331
0.002399,489,-904,1593,-16,-1230,6280
0.002431,-1575,-164,1824,2888,2484,-2211
0.001325,514,-464,1692,1213,-1400,-8136
0.004583,318,-1385,1682,844,5831,-10267
0.001332,2590,-2100,1409,-2183,-6945,2975
0.001352,-1548,-1081,1752,-1148,1732,115
0.003585,336,34,1690,3752,-3790,6791
0.002445,-645,-722,1733,1177,-265,2102
0.002483,-386,-1523,1651,-3086,7105,-6357
0.001365,2061,-862,1537,-1521,-6899,1287
0.002458,-681,-876,1703,-2845,1601,-3032
0.002451,234,-700,1723,-1288,-6554,1710
0.002445,-2000,-276,2043,-5,4565,-3195
0.003578,2078,-841,1669,-74,-2246,5895
0.001379,-717,-1042,1740,-3406,-6418,10030
0.001389,-1685,-405,1869,-2329,2668,597
0.004626,783,301,1846,-433,1129,-6002
0.001322,-550,4,1979,1266,49,-5583
0.001343,-481,-586,1951,15,-6608,1566
0.003551,-1087,-1002,1876,-2902,7804,613
0.002464,526,-448,1856,-2160,-6220,10696
0.002457,-1376,377,1956,1616,2487,7232
0.002524,-483,209,1868,-319,719,2061
0.002461,440,10,1755,-1321,-2420,3138
0.002494,-1754,-84,2140,-3163,-2386,-2915
0.001354,145,276,1923,-1777,6272,-4158
0.002460,-72,-22,1954,-3418,-688,1075
0.002450,-1509,327,2037,316,-7981,7532
0.002567,-160,412,2012,-369,3879,2550
0.002443,-797,-38,2025,-896,5002,2408
0.001453,-723,67,1988,-1501,-3582,2422
0.003558,-1830,473,2046,-1382,8716,-5256
0.002449,1811,405,1889,1103,-5194,8786
0.001365,-2068,93,2333,-1801,3590,2040
0.003571,193,525,2052,1043,5589,-6014
0.001355,557,948,2180,4267,-6125,5736
0.002441,-2192,-148,2076,144,8058,487
0.002535,1157,-543,1678,-2575,2142,2166
0.002451,-1111,723,2117,358,3327,-1504
0.003541,534,664,2087,1700,-1162,917
0.001361,-665,-281,2079,-1609,3904,-995
0.002435,517,-344,2086,-706,3704,1731
0.002447,574,296,2117,619,1641,4907
0.002469,-805,248,2118,1017,2578,1132
0.001334,425,133,2041,48,2294,-2556
0.003755,348,124,2149,877,5672,-5402
0.002430,839,317,2214,3744,744,119
0.002437,603,-382,2162,1110,-795,2741
0.001353,-633,-373,2229,252,9109,-3624
0.002451,2809,-110,1909,2193,-1941,5971
0.002465,-741,-114,2198,285,338,1553
0.002443,681,-238,2168,-98,3793,-2315
0.003547,1167,-7,2061,-552,3614,-4616
0.001339,863,-115,2131,-12,181,-2966
0.003521,844,-344,2312,112,-4246,245
0.001421,7,-667,2271,-1098,1728,-4260
0.002436,1610,-377,2182,585,2179,248
0.002441,556,-377,2248,313,-6853,7287
0.002454,-737,-421,2372,-60,-2716,-1219
0.001355,592,-222,2413,503,8088,-10408
0.003557,2122,-306,2260,1398,-2142,-1626
0.002457,-184,-680,2493,-1637,-5441,2289
0.001345,-159,-229,2608,207,375,-4134
0.003559,1259,350,2607,4230,-1230,29
0.001354,613,-280,2464,2937,-5338,3272
0.003552,-667,-768,2538,-665,-1719,-3705
0.002438,436,-296,2523,359,624,-4945
0.001368,-137,-522,2584,-476,-5220,-1260
0.002462,-820,-868,2643,-757,-2967,-1368
0.002470,497,-639,2734,-770,765,-1109
0.002496,44,-132,2733,2102,-4970,3169
0.002447,-778,-412,2648,931,-3390,2564
0.002474,-1534,-692,2722,-2172,-1033,-1406
0.003571,-209,-251,2726,-1611,639,-4562
0.001324,113,-204,2789,153,777,664
0.001368,-771,-654,2787,-1644,-6954,3274
0.002471,-1317,-141,2808,-1510,2533,-1158
0.003541,-590,256,2854,2203,-1533,1898
0.002469,-1360,-350,2835,-243,-1619,-1067
0.001361,-774,-608,2559,-1602,4003,-938
0.002462,-485,-274,2621,-2504,-3879,4627
0.003534,-905,109,2651,-1979,-39,3092
0.001368,-1572,420,2790,-1360,-1246,3479
0.001374,-1017,89,2663,-2093,2968,-443
0.003553,-1341,-11,2781,-3133,-54,-1402
0.002506,262,211,2722,-2052,-2481,912
0.003540,-1340,381,2730,-404,2427,2877
0.001353,-817,459,2570,151,-3290,6253
0.001341,-2246,405,2723,-1604,2029,-2844
0.003541,-849,619,2733,2069,6073,-2892
0.002493,455,-58,2579,-1407,-1793,-791
0.002441,-1511,-42,2757,-281,1785,380
0.001372,25,425,2660,1099,-2335,5575
0.003540,-1635,746,2728,2282,5743,2564
0.002438,-241,403,2568,1019,-367,2258
0.001350,-1589,266,2627,208,6573,-6984
0.001343,1308,121,2477,70,-2095,-4727
0.004618,-441,22,2605,665,-807,-1695
0.001328,-847,3,2626,967,4146,-1518
0.002432,-209,174,2594,2981,553,2420
0.003538,-928,-109,2605,1890,-3096,752
0.001357,-630,-392,2474,1489,5727,-4412
0.002458,1056,-516,2389,528,988,-2729
0.001371,-315,-333,2596,1860,195,-4693
0.004643,-1376,-227,2700,3295,4102,-6443
0.001350,446,-594,2503,3293,-886,-1258
0.001358,-477,-1258,2495,278,4145,-4909
0.003543,1009,-907,2465,1646,-1081,2348
0.001329,-2,-792,2403,1733,-88,4958
0.002436,-500,-682,2372,1425,3821,157
0.003566,115,-495,2433,487,1537,-2922
0.001373,-86,-828,2461,-872,-1214,-7289
0.002505,583,-1049,2437,-114,-1961,-6806
0.002509,703,-1394,2353,-1093,4500,-4796
0.002456,75,-964,2402,400,-3862,6320
0.002451,-649,-719,2391,1144,-6353,9844
0.002472,-1468,-937,2449,-200,10852,-4088
0.003551,2080,-1067,2266,396,-3784,2283
0.002463,-1071,-722,2566,253,-2432,-4981
0.001354,794,-933,2389,-250,4557,-6020
0.002443,404,-819,2335,507,-1185,1152
0.002454,-865,-665,2576,1674,-1300,1885
0.001338,269,-738,2357,193,1979,2979
0.002449,-38,-1281,2110,-3366,407,5062
0.003565,-439,-1040,2263,-3096,-1476,2089
0.002501,-406,-188,2419,-1092,8814,-4959
0.001363,1446,-232,2309,-118,-1846,5897
0.002462,-670,-800,2411,-4246,-3564,4791
0.002463,-455,-317,2480,-1892,4448,-2073
0.002449,1111,213,2291,1099,-2143,3721
0.003563,-1294,-541,2247,-2262,4654,-1460
0.001343,576,-476,2095,-2696,-863,-85
0.002531,-713,157,2451,817,1734,-14
0.002437,101,-226,2378,1589,8084,964
0.002483,1375,-1011,2103,-3578,-2280,4353
0.001350,-1384,-165,2440,-1466,-76,812
0.003535,974,263,2246,2019,1066,1649
0.001344,352,-445,2041,-859,2794,1080
0.003578,-996,-272,2191,-2171,-125,4423
0.001323,73,169,2266,-1941,3646,61
0.002438,417,-144,2259,-2018,1144,517
0.003539,858,-270,2231,-1448,2617,2025
0.001359,444,-81,2332,-2708,-1419,-1403
0.003532,353,789,2403,2167,-1025,4775
0.002431,-426,224,2315,802,3267,3647
0.001350,31,-368,2186,-1986,3238,-2107
0.002452,-190,332,2343,-1004,4400,-3877
0.003538,1826,308,2274,1320,-3942,4854
0.001342,-479,-529,2310,-1830,5778,84
0.002436,534,164,2424,-856,2568,-2714
0.002443,1313,949,2338,4273,-4035,5958
0.002445,-728,-274,2322,-698,-641,6189
0.002488,1221,-663,2084,-3586,2998,1531
0.001353,-108,832,2413,-955,6072,-3426
0.003539,1398,960,2397,1385,-6350,4385
0.002453,-834,-266,2420,-3661,3481,-4948
0.001348,1869,-63,2443,-1367,584,-1923
0.003548,435,947,2564,2786,-1973,4217
0.001344,-547,295,2508,620,-1333,2484
0.003534,621,-255,2296,-1008,-149,3256
0.001354,-305,223,2618,-137,-2112,-1517
0.002459,1127,652,2575,4183,7083,-5022
0.002450,1238,-130,2468,-1006,-5628,595
0.002433,-1386,115,2652,-338,185,-753
0.003526,1047,361,2509,1172,-610,-579
0.001352,-70,321,2561,2080,-616,2542
0.001378,271,-88,2522,-1310,419,3219
0.004611,22,293,2582,-920,-2472,1701
0.001342,389,496,2549,834,-1561,-1278
0.002462,-348,183,2670,-1369,879,-4076
0.002427,609,357,2701,-267,-2759,522
0.001404,-195,319,2799,-83,-2498,1470
0.003534,-598,379,2777,589,-3126,-1256
0.001368,-134,365,2717,1165,-829,-1330
0.002419,-852,336,2746,575,-36,258
0.003529,280,-31,2657,-579,1662,-3830
0.001342,-742,137,2787,694,-6327,1169
0.002458,-879,175,2768,1386,2985,-2021
0.002410,15,1,2760,912,43,-2335
0.002431,247,306,2728,2516,-3651,1265
0.002452,-1082,-101,2705,1363,-1811,1580
0.002465,-1355,-102,2636,443,1106,-1828
0.003544,-709,102,2638,524,5869,-5499
0.001356,-351,-151,2727,1607,-2704,-656
0.001349,-228,-526,2756,262,-1443,-888
0.004627,-353,-550,2709,383,4341,526
0.001350,-367,-18,2637,2232,-4315,3264
0.001349,-1805,17,2589,2125,5203,-1755
0.003536,-699,-453,2568,541,1909,-1729
0.002444,514,-663,2532,-554,1889,-6004
0.002451,-612,-391,2628,1763,5351,-5922
0.002443,-23,-506,2533,2223,-1207,1733
0.001342,-1241,-782,2528,946,4778,131
0.003528,13,-776,2458,2175,5179,-1513
0.001348,1088,-709,2293,1659,1662,2779
0.003585,-627,-898,2287,-103,345,86
0.001368,939,-802,2168,-352,6490,-1795
0.002831,-527,-684,2298,-2903,-1336,-2301
0.002449,-8,-385,2280,584,4481,-2996
0.001513,737,-839,2235,-1807,3717,-3386
0.003598,1367,-1002,2153,-2095,-817,1207
0.001402,-193,-495,2233,-326,-4003,5745
0.002443,-178,-322,2155,480,7109,637
0.003553,1114,-497,2097,-803,704,-1229
0.001377,-507,-445,2251,-1280,959,-3976
0.002476,1552,-669,2073,-1028,2343,-1770
0.003554,1006,-1065,2148,-2851,-734,-603
0.001362,-504,-21,2365,796,-2123,2329
0.002454,960,313,2140,2792,3019,6063
0.001356,722,-657,2071,-2555,-1702,4333
0.003548,-16,-315,2193,-3104,5563,-2716
0.002448,2104,304,2143,-1018,-3833,909
0.001351,-240,137,2334,-706,-5010,1771
0.002445,305,-178,2243,-393,4145,-5700
0.004663,1220,129,2105,882,-2048,2376
0.000239,-361,6,2208,-359,-4039,7379
0.003535,212,-678,2082,-4773,-802,781
0.001328,86,179,2247,-192,593,-2181
0.002434,813,795,2242,3113,-2416,-761
0.002478,382,119,2255,265,-918,2619
0.002454,-537,-256,2328,-2208,-2897,2707
0.003557,154,382,2323,1452,-941,-392
0.001369,-245,597,2261,1530,-683,-1217
0.002416,941,117,1959,2,-4994,5296
0.002451,-1373,-157,2180,-3304,-570,205
0.002426,-52,521,2226,132,-3875,2404
0.001345,-1151,317,2228,322,2041,-4236
0.003546,-471,-106,2163,-693,2535,-1629
0.001383,755,-108,2161,-2694,-4940,2256
0.003548,-1064,278,2232,-316,-4119,4651
0.002433,-437,522,2128,779,-200,4389
0.001351,-980,-18,2077,-2984,2780,-253
0.002450,-1585,604,2173,-501,-3247,-383
0.003532,-412,629,2128,445,-2335,-4670
0.002449,-1080,180,2284,425,10230,-9538
0.001434,1370,12,2059,1332,-4361,5822
0.002460,-1776,526,2224,2148,-4844,11214
0.002440,-1107,336,2074,597,3343,3020
0.002447,-1090,156,2082,-237,2448,-1639
0.003616,-650,582,2059,-1033,-4050,-5853
0.001335,42,871,2008,2400,9472,-8215
0.002494,990,-109,1913,-1425,-10903,7260
0.003544,-4330,76,2411,812,7143,-2353
0.001344,1704,469,2085,3269,-2304,356
0.001349,-1501,265,2005,3684,6926,-362
0.003755,201,-784,1844,-1481,-3880,2666
0.002453,-1127,94,2051,-249,2724,-7459
0.002446,-224,851,2089,4597,5826,-1747
0.001345,-437,-438,1990,727,-1028,1684
0.002430,-654,-565,2035,179,3815,-408
0.003523,234,199,2070,894,3259,-1862
0.001336,228,249,1883,3863,2462,4824
0.001326,25,-399,1767,80,-2327,4222
0.004644,-1210,-28,2031,-799,10618,-6113
0.001344,1583,305,1986,1318,-804,2137
0.002440,-736,-630,1972,-2329,-15,-392
0.002443,970,-746,1857,-2617,5138,-1704
0.002425,605,254,1997,1081,435,5221
0.002487,-362,429,2018,1279,29,3825
0.001347,217,-186,1898,-185,3011,-832
0.004630,276,-392,1945,-2109,333,-1401
0.001366,870,78,1936,-26,7001,-1700
0.001368,2080,-250,1896,-1469,-4817,5947
0.003532,-1784,244,2232,-247,1926,892
0.002430,2059,425,1981,1074,1562,476
0.001324,854,164,1862,271,1018,5115
0.002437,652,-223,1869,-3315,-4385,6240
0.002424,281,697,1984,-479,4333,714
0.003540,783,839,1954,-1502,2338,-2247
0.001337,908,389,1969,-338,-1875,490
0.001342,698,30,2006,-2357,-2284,-564
0.004613,1080,598,2031,297,-70,2977
0.001333,692,783,1973,722,-2236,7273
0.002448,-85,574,1920,-1007,126,3793
0.002461,-110,645,2040,-1776,-1193,-2035
0.002446,389,835,2160,-304,-2887,-5852
0.002437,1070,681,2041,791,5838,-4447
0.001409,1213,269,1924,-1060,-6343,8532
0.004658,-1089,944,2198,794,-2206,2455
0.002470,717,1338,2216,4089,-2903,-1600
0.000246,467,869,1846,2386,-2209,2681
0.003541,-203,19,1896,-2768,-4013,-2002
0.001398,-78,995,2123,-614,1216,-3236
0.002452,138,1127,2179,1140,-4023,-1786
0.003537,-865,701,2169,2445,-4603,-529
0.001343,-200,218,2219,842,1908,-4645
0.003535,348,400,2133,2119,-4710,-1231
0.002455,-1311,316,2157,2264,-3820,-2469
0.001388,-985,43,2046,1515,344,-4522
0.002445,-577,119,2018,1449,-2788,-202
0.001350,-1515,-149,2147,719,-500,1238
0.004631,-845,-341,2218,-15,-113,-2435
0.001357,-457,-165,2130,1450,1139,-7653
0.001349,-354,200,2089,4219,-3318,-565
0.003538,-1425,-391,2051,1329,746,1026
0.002452,-1278,-723,1924,-1429,914,-454
0.001356,-1337,260,2003,1061,1189,-2570
0.003529,-756,-13,1971,1064,654,-3064
0.001376,-895,-683,1935,-377,1026,-1944
0.003586,-597,-589,1980,-603,-743,-4435
0.002482,-960,84,1937,3870,904,-2009
0.001363,-1189,-745,1757,425,1704,1416
0.002502,-1589,-1176,1779,-1809,6730,-3573
0.002513,-63,-365,1899,246,-2176,-5918
0.002448,-972,-52,1968,5187,4167,-2276
0.002439,96,-1403,1743,-430,1036,1532
0.001364,-897,-1206,1697,-1816,3994,1318
0.003512,-607,83,1800,2003,1651,133
0.002495,-121,-111,1746,1227,2295,-2025
0.001358,-512,-728,1696,-961,1928,-1922
0.002534,594,-601,1617,-1311,-1720,-177
0.004646,-1459,-262,1891,-244,7931,-2751
0.001359,1414,-399,1694,1365,-2079,2270
0.001344,-948,-718,1797,-1196,225,285
0.002474,-163,-655,1766,-1562,1071,-1701
0.002542,902,-175,1650,-52,3535,38
0.002448,148,-291,1643,1762,-3074,6465
0.002485,-1348,-414,1813,-480,-93,-1892
0.002444,-37,-262,1750,-145,8720,-7885
0.002444,1400,-571,1648,133,-479,-1528
0.003562,-305,-1082,1754,-1278,-3478,-1085
0.001351,24,-153,1795,2445,1906,2308
0.001346,627,-203,1565,1751,4198,8914
0.003614,28,-753,1527,-1946,-3660,7643
0.001427,-773,-289,1703,-1723,1220,-4035
0.003540,723,184,1647,1941,4093,-4747
0.001371,1362,-720,1458,-3002,-4871,-1950
0.002459,-771,-606,1657,-2101,2826,-4325
0.003542,520,417,1794,4125,-2812,5489
0.001344,-119,-503,1539,151,1944,4072
0.002459,-414,-1197,1360,-3564,-989,2199
0.003538,548,-244,1449,-1509,-1203,-74
0.001336,166,188,1583,303,3953,-5051
0.002430,1050,-200,1398,1784,800,374
0.001364,-1505,-395,1636,-647,-7962,2171
0.003537,-659,-268,1660,914,10635,-7908
0.002452,2869,-426,1244,1575,-1884,4065
0.001364,-1164,-704,1479,-683,-6468,7616
0.003538,-706,-503,1397,-1285,3369,255
0.002423,591,199,1178,1264,1030,802
0.001335,-161,-215,1258,781,1535,893
0.003543,-314,-897,1396,-3414,120,-2025
0.001387,819,-387,1279,-2099,-608,-3815
0.003703,-950,104,1364,567,-1095,1695
0.001365,417,-315,1159,271,816,5224
0.001525,-523,-766,1207,-2406,-1085,2569
0.003563,-841,220,1272,305,-3229,3211
0.002513,-237,-208,1156,-1130,5109,-3308
0.001379,629,-532,1223,-2113,6345,-3665
0.003519,464,29,1396,396,-8417,4675
0.002484,-1579,343,1348,2363,1029,1873
0.002448,695,-336,1086,179,2422,3347
0.001409,-159,-428,1002,-1733,1156,1739
0.002415,-916,287,1144,67,621,1011
0.002455,479,247,1011,-1485,1193,-835
0.002471,182,-111,1181,-1903,-2260,3075
0.003565,-520,338,1346,-105,4466,1199
0.001346,401,341,1232,-101,-1458,3220
0.002449,-307,294,1199,-502,-2099,2669
0.003519,-856,69,1113,-961,2122,313
0.001339,923,282,1041,-1490,579,-582
0.002477,-678,493,1256,-881,1089,1669
0.002427,-507,435,1288,747,-49,1558
0.001360,-116,-68,1213,-148,7578,-3378
0.003623,760,26,1181,-1293,-1505,3795
0.002432,489,273,1103,-57,1641,4700
0.001335,227,627,988,856,-2968,7556
0.003535,-846,798,1109,-349,731,2828
0.002458,-430,648,1094,-1168,8089,-3393
0.001346,2151,390,998,-2951,-4497,114
0.002451,-496,200,1239,-2812,1615,-3109
0.002448,298,547,1212,-1363,-1802,-417
0.002415,754,987,1076,42,3013,1852
0.002454,-251,520,1104,517,-3216,7463
0.001448,-304,332,1091,-2041,-316,1870
0.003522,364,867,1004,883,2988,-2734
0.003518,108,993,1132,405,-7330,103
0.002477,-359,419,1140,-443,12744,-8864
0.001344,1954,437,1058,270,-7358,3304
0.001359,-1132,985,1267,1740,-3053,3075
0.003530,88,424,1018,829,4403,-836
0.002415,847,266,789,1,-2179,1016
0.002448,-1083,845,1112,313,-394,-2709
0.001346,746,906,1083,1737,1322,-1128
0.002427,781,143,945,-1580,-395,546
0.003595,-610,482,1158,62,-2633,-1586
0.001380,245,1054,1170,3063,-1489,-4633
0.002429,42,501,948,1988,547,-3107
0.002472,378,-146,845,-124,3560,-3391
0.002460,169,186,1075,876,-6481,-1036
0.002456,-1495,847,1339,5433,5163,-7582
0.002439,1501,-149,943,3708,737,-2617
0.001363,-262,-708,921,1090,-2224,-2393
0.003532,140,-399,979,2811,272,-4561
0.002441,117,-100,834,3166,-544,-1391
0.002455,-1216,-479,800,1536,4371,-4396
0.002446,445,-340,754,2133,1275,-3842
0.002444,395,-615,841,2165,4735,-5976
0.002447,207,-1157,817,994,-2676,-3748
0.001365,-442,-1203,770,-784,-198,-5052
0.002421,568,-914,644,911,4239,743
0.003535,642,-1045,706,743,-4452,6140
0.001352,-1224,-828,756,975,4893,-2060
0.003529,-234,-696,706,35,2290,-7466
0.001347,767,-829,650,1616,1805,-5334
0.002498,784,-1557,633,-399,320,-2568
0.002482,-633,-1284,683,783,3929,-1557
0.001435,632,-705,608,1348,-4934,4472
0.004666,-225,-805,631,782,5642,965
0.001367,1618,-1389,492,-1724,-2316,7864
0.001373,-1232,-996,612,-2330,732,1363
0.003548,280,-558,589,-3961,5364,-6989
0.002457,1202,-584,538,-2729,-2197,1020
0.001345,17,-821,755,-3130,-3889,2438
0.003542,412,-349,692,-117,925,4058
0.001337,34,-49,614,-709,2668,2342
0.003546,398,-517,460,-2454,-2563,7057
0.001400,-658,-493,580,-4465,-1615,503
0.002447,1007,53,645,-580,2127,638
0.002446,439,48,620,-2072,-1307,-838
0.002441,-301,180,799,1244,-8880,3286
0.002564,-735,351,802,1340,9234,-4586
0.002461,2859,-515,450,-2091,-24,5056
0.002466,-1720,37,649,-3656,-8243,11777
0.002442,-156,467,576,-3154,2591,1239
0.001347,745,964,704,-1313,4201,1381
0.003551,841,677,633,-1540,-7811,4934
0.002504,-1453,479,755,-2558,-652,-2731
0.001348,332,539,672,-2600,3790,-5271
0.004613,796,582,704,-513,-1412,754
0.001357,-141,771,680,969,-6520,7683
0.001339,-706,655,628,-801,1753,4130
0.002433,130,442,610,-2161,1622,2451
0.003546,-937,727,753,-1391,-3688,-2065
0.002489,-80,994,654,1497,2901,-4233
0.001340,654,529,567,-381,-4073,1139
0.001332,-323,796,676,1249,1253,970
0.004640,-422,1277,838,3243,-2322,3861
0.001345,-544,901,590,2110,-2399,2402
0.001354,-966,326,494,-1083,3920,-5005
0.002490,769,308,481,-594,-1695,-3235
0.003539,-145,401,586,-357,-4111,-1065
0.003540,-1172,610,670,2153,3450,-903
0.002430,330,416,557,398,-4035,2539
0.001338,-1930,382,665,831,427,-2238
0.002441,518,182,416,1669,960,78
0.001491,7,-125,284,-1401,-128,-837
0.003621,-1011,416,513,849,-3317,-2678
0.002432,-802,824,603,3757,3536,-3435
0.001352,-512,-14,526,260,6408,-5288
0.002425,734,-451,400,1357,-4570,74
0.002460,-1418,-104,644,2199,-3863,-2230
0.002414,872,162,359,4922,4939,1268
0.002445,-423,-434,342,-242,-2572,2238
0.001329,-1442,-14,435,731,1721,629
0.004613,-110,-91,401,-814,2818,-5270
0.001337,565,-418,319,-455,678,-5193
0.001357,-221,-606,406,-941,-2502,-1579
0.002437,-58,-182,456,2478,1141,-1125
0.003523,130,-169,348,3064,-680,5275
0.002437,-1252,-589,328,309,1183,2176
0.001382,-723,-662,308,-2465,3537,-6167
0.003524,900,-59,266,2587,539,-429
0.002433,302,-880,326,-426,-1615,2869
0.001368,-918,-950,433,-2405,3943,-3685
0.002418,485,211,437,3896,-874,234
0.003514,44,-181,265,2164,772,5633
0.001372,-334,-1264,138,-3738,2946,1877
0.002456,656,-468,127,-2832,-3054,2823
0.003522,-842,400,337,207,868,146
0.001346,1159,-330,178,-992,3085,2366
0.002468,-351,-617,398,-4670,-469,2568
0.001345,462,302,403,-1416,-1498,2155
0.003551,477,152,295,-1335,-2215,3975
0.002450,-507,-195,221,-1924,3378,647
0.001338,968,230,192,-3032,-2452,669
0.005731,-1079,974,481,2417,2415,-36
0.000225,1020,2,255,-420,3087,3165
0.001330,-2,-606,264,-5244,1330,712
0.002433,727,498,320,-786,-2875,4490
0.003551,447,957,243,1399,-5207,8323
0.002441,-561,384,146,-2038,4199,1001
0.001338,609,665,105,-2503,1824,1541
0.002516,-308,1166,260,-1665,-2562,2283
0.003561,633,622,136,-691,1053,-118
0.001337,47,257,211,-3376,1217,-1531
0.003575,817,856,154,-268,-2760,2390
0.001386,307,1059,164,-303,-5115,5794
0.002448,-597,797,152,941,2081,1958
0.002466,397,434,47,-4049,-2252,-2460
0.002443,-1488,1279,292,480,804,-5725
0.001318,1719,950,56,858,31,-1052
0.003552,-266,231,169,-1169,1234,-549
0.002467,222,1058,290,1972,-11052,5932
0.002449,-852,1558,219,5016,5026,-2488
0.001343,667,490,23,451,-1972,-1713
0.003558,-1021,361,127,-858,-3741,-2639
0.002449,-441,608,139,-231,-3029,-5045
0.001334,233,702,83,1466,1322,-1285
0.003641,-442,83,139,-1811,3174,-4187
0.001338,-326,637,288,2471,-9096,653
0.002447,-1576,681,360,2086,2457,-7672
0.002498,319,-170,-58,2228,1687,-2341
0.002464,-475,-416,-95,-1648,-2689,-880
0.002432,-1451,411,246,1895,40,-2112
0.002440,-690,363,218,3337,2269,-2906
0.001350,-41,-451,124,974,2283,-7054
0.004634,-291,-236,195,3872,41,-3065
0.001345,-169,-227,36,3980,-281,-1477
0.002455,-1506,-586,-27,1220,4817,-5274
0.002471,475,-394,-151,1961,-1181,-4055
0.002480,-1298,-161,-65,3528,99,623
0.002430,35,-1108,-268,837,4079,-56
0.001420,-1291,-1274,-152,-2050,4137,-4317
0.002435,424,-327,-117,1774,963,-4789
0.003532,-25,-576,-123,1251,1239,-1528
0.001375,194,-1034,-309,-831,-1539,3561
0.002438,-366,-845,-283,-1188,2146,90
0.002455,-1212,-134,-121,1251,3433,-1806
0.002441,1084,-638,-354,319,3201,-3452
0.003528,-539,-1040,-207,-2043,616,-731
0.001354,944,-845,-259,-1469,-333,2363
0.001332,-467,-276,-87,-52,3577,-96
0.004646,677,178,-279,3424,-962,2660
0.001354,88,-583,-390,-1205,3404,1980
0.002464,-423,-670,-260,-1765,-2887,1510
0.001359,1703,-470,-354,-2074,4880,-908
0.003554,-757,-282,-109,-2708,56,502
0.002448,1772,19,-286,-1597,-198,1462
0.001331,-665,0,-82,-1578,-295,2255
0.002440,1339,149,-273,331,-8308,5730
0.003576,-531,-81,-327,-1267,6728,1481
0.001338,239,15,-217,-1252,832,-1940
0.003551,1334,166,-248,-2310,-4854,-1416
0.001362,-1875,396,37,1402,5564,-6296
0.002442,2758,-425,-438,508,-1563,3253
0.002472,-1036,-382,-130,-1534,1624,3643
0.002438,950,299,-200,1870,-3942,6018
0.003578,541,232,-310,826,1031,2481
0.001320,-242,51,-331,-207,139,846
0.001400,1256,245,-369,-1669,-2821,1743
0.004649,-1306,360,-155,-1877,4218,-6636
0.002452,1937,135,-396,-721,-4827,-1088
0.001364,-1198,-87,-132,-1762,2724,-4388
0.001336,1736,11,-332,452,-1882,2331
0.003531,-601,182,-219,994,-5629,4416
0.002458,-871,26,-433,812,4405,-704
0.001337,715,10,-462,1905,-4243,2313
0.002512,-1251,194,-277,1965,-283,-2107
0.003535,541,-207,-392,234,10808,-6240
0.001357,2093,-434,-561,-54,-10093,2363
0.002433,-2328,259,-149,3567,2562,7
0.002450,1987,-209,-588,2133,811,5300
0.002494,-709,-592,-730,-2571,1089,2188
0.002433,-363,375,-442,81,-511,-2001
0.001425,714,288,-574,1423,-1084,-724
0.003547,104,-594,-667,-1998,2878,-1242
0.002444,84,-410,-566,-1387,-3685,2619
0.001350,-253,449,-419,2255,-2079,1420
0.003563,-44,59,-499,3214,3791,1532
0.001358,611,-927,-823,-2488,-1443,2990
0.002465,-1072,-189,-559,-1743,1611,-2968
0.003530,714,669,-516,3555,1862,-1337
0.001343,721,-363,-582,678,-1750,6332
0.003552,-1472,-774,-541,-3047,-167,1341
0.002436,1627,133,-653,851,1522,-1139
0.001348,-517,485,-539,1553,-1454,1714
0.002455,-53,-513,-821,-2642,508,2459
0.002451,-290,-378,-770,-4492,-680,1440
0.002440,-342,543,-621,-1038,4800,1722
0.002441,952,139,-675,-1449,-3679,6677
0.001381,-1041,-187,-543,-3259,3062,-640
0.004665,1604,410,-629,-1226,701,1181
0.001380,58,773,-657,-483,-6683,6154
0.002458,-570,536,-622,-398,1259,2970
0.001405,581,444,-724,-1418,4504,-2396
0.003529,-442,845,-672,-668,2082,-326
0.002427,504,545,-674,-352,-656,3115
0.001366,404,-94,-608,-3048,3650,-3814
0.002441,1161,865,-604,1136,-1464,3572
0.002482,767,1162,-712,3416,-5169,10379
0.002441,-765,292,-763,-2286,2339,3068
0.002461,-74,947,-717,-3328,2656,-3704
0.002443,545,1573,-732,876,236,-1410
0.002432,601,700,-768,-668,-4671,702
0.003535,-17,133,-766,-3823,3628,-5055
0.001365,1641,922,-800,2481,-3085,8417
0.001357,-1215,699,-648,307,-6729,5453
0.002450,-809,507,-792,-677,5509,-3343
0.003537,1391,979,-937,-782,-1875,-464
0.002486,-201,1110,-756,2057,1198,1199
0.001359,901,703,-801,1455,-12861,5818
0.002472,-2437,1118,-603,-469,13033,-11786
0.003574,3267,1231,-825,4761,-4703,6838
0.001371,-1277,496,-774,503,-9516,514
0.002482,-742,665,-920,950,9378,-11241
0.002531,3152,1023,-992,4057,-13193,5944
0.002474,-3311,462,-666,1149,2788,-4646
0.003558,416,200,-1111,1356,718,-2845
0.001337,115,49,-1010,704,-697,-1669
0.001351,-417,-98,-725,943,-1405,-2513
0.003579,813,-82,-955,-273,-2634,-3233
0.002487,-951,246,-975,2035,-1014,-2287
0.002433,-93,231,-955,3687,-1349,186
0.001369,-1011,-370,-927,-702,2185,-5858
0.003555,-124,-145,-956,1745,-1572,-4080
0.003553,493,-147,-1029,2349,1225,-5563
0.000245,-19,-291,-996,3647,-91,-4294
0.001354,-93,-364,-966,3289,-5835,-1153
0.003590,-1861,-470,-1063,2209,7038,-6482
0.002444,1675,-799,-1430,1441,282,1061
0.003572,-1642,-861,-1234,-241,-647,-2192
0.001362,20,-543,-1217,864,1233,-4958
0.002461,141,-652,-1254,632,2110,-3454
0.002442,573,-874,-1385,1219,-190,-167
0.002496,357,-882,-1328,858,-1797,3116
0.002468,-1626,-603,-1275,301,1794,-2503
0.001380,358,-605,-1488,-844,43,-3757
0.003578,-274,-882,-1444,-1080,3173,-4140
0.002446,1328,-1030,-1396,8,-2378,3647
0.001389,-1199,-594,-1174,-701,1249,-2059
0.001339,283,-116,-1338,2304,3110,-50
0.004609,443,-625,-1475,-2,-482,-385
0.001349,721,-839,-1504,497,-1376,1547
0.002456,182,-253,-1549,648,1771,4311
0.002457,160,-429,-1642,-2023,-3270,4784
0.002478,-1229,-319,-1441,-3122,5636,-638
0.002436,1790,-223,-1488,-1804,694,288
0.002451,281,-194,-1398,-1960,-4586,3155
0.002460,742,-212,-1583,-3609,-2252,1389
0.002538,-285,398,-1400,-915,3598,-2318
0.002471,1238,560,-1530,893,-6605,7354
0.002478,-1632,-146,-1480,-2748,-1768,4097
0.001338,4,-4,-1494,-3202,-852,-3360
0.002459,1681,497,-1552,-305,6118,-1399
0.003550,-516,171,-1370,-603,-8845,6472
0.001346,257,447,-1353,-893,172,-1875
0.003598,-125,648,-1436,781,5059,1301
0.001385,1237,282,-1702,-2115,-9682,9693
0.002469,-1652,348,-1461,-3207,3175,-3427
0.002440,1107,1079,-1564,37,-395,2987
0.001400,91,840,-1686,-1991,-1420,2014
0.004655,-467,529,-1460,-1259,-1834,-1138
0.001353,258,1088,-1374,295,-1713,-382
0.001354,223,757,-1655,-312,1551,-1452
0.003855,-348,506,-1748,-1614,-8108,3838
0.001420,-771,715,-1659,-2690,7305,-4395
0.002500,440,976,-1620,-154,-2311,1719
0.003567,-335,1050,-1581,1238,-7834,2787
0.001359,-1200,606,-1462,350,7369,-3953
0.002430,961,719,-1675,871,-2463,623
0.001361,-9,1006,-1613,1866,-2921,-2749
0.003543,-1050,958,-1605,3622,-1373,894
0.002445,-27,509,-1889,369,400,-758
0.001364,-751,456,-1836,-33,2857,-840
0.004616,236,578,-1824,-47,-5437,3151
0.001351,-959,308,-1737,-746,753,-5956
0.001373,-49,413,-1782,1134,3076,-4099
0.003536,262,461,-1833,982,-3704,-482
0.001353,-1006,320,-1796,1667,1158,859
0.002447,3,214,-1957,1797,-2319,4809
0.002544,-1005,-139,-1964,-1358,2491,-4042
0.002453,-520,585,-1840,3085,2384,-3964
0.003540,761,326,-1959,3293,-376,-2551
0.001358,-715,-539,-1961,900,5886,-5638
0.002443,937,-106,-1997,1600,-5275,-17
0.002444,-794,571,-1956,5270,1770,2050
0.001357,475,-530,-2213,1214,-1516,3478
0.004659,-1120,-821,-2207,-2849,2500,-2318
0.002459,216,-211,-2267,-1587,3467,-3254
0.000252,608,-324,-2331,-2012,742,1724
0.003553,-417,-469,-2173,-3814,-1257,-133
0.001331,619,315,-2099,1569,2582,798
0.002445,611,212,-2233,1156,-1172,2318
0.003546,-246,-216,-2342,907,-3574,2868
0.001372,-542,-138,-2367,-2250,5265,-2492
0.002446,539,292,-2242,-457,6477,-7013
0.003546,2426,130,-2525,2630,-3074,5238
0.001375,-2401,-418,-2120,-1020,-843,1032
0.002461,2434,-223,-2396,405,6504,-2303
0.002434,467,113,-2458,906,-2916,5854
0.003513,68,32,-2416,-518,-399,2907
0.001357,961,29,-2571,-1673,5653,-538
0.001358,1308,586,-2643,-916,-2495,6005
0.003545,-179,340,-2528,-2288,1284,2072
0.002444,1002,101,-2535,-2356,1724,108
0.001350,1010,212,-2510,-2566,497,-297
0.003568,952,522,-2576,-1307,-932,892
0.001344,2067,722,-2648,91,-4669,6149
0.002443,-668,651,-2499,-466,-743,3838
0.003538,1119,696,-2744,-238,1054,2147
0.001364,-196,500,-2666,-1498,3342,-3000
0.002445,1816,564,-2742,-641,-718,-590
0.003552,1098,412,-2733,-1726,-3982,1739
0.001394,162,1022,-2580,1478,-4273,5248
0.002424,1403,922,-2768,542,951,897
0.001336,77,701,-2865,-769,-798,2047
0.004644,180,892,-2884,-2265,-1431,-1257
0.001372,1346,865,-2934,-2671,-2831,-1927
0.001358,355,1017,-2853,-2048,-5183,773
0.004647,139,1131,-2708,-588,2383,-2273
0.001386,1098,1275,-2819,1815,-5981,4588
0.003561,-309,1047,-2735,-383,-8806,-2252
0.001360,-419,1143,-2773,2002,2506,-4342
0.001353,1434,624,-2964,-886,-6602,1127
0.002460,-1342,730,-2753,-688,2215,-6789
0.003555,474,1306,-2737,3148,-4717,-2391
0.001364,-706,767,-2843,2127,-1029,-2593
0.002455,-14,157,-2859,1246,-2799,-1152
0.002451,579,240,-2952,2034,-1557,-4317
0.002459,-682,568,-3017,2361,-2858,-1563
0.002459,-1034,434,-3066,2137,-6679,1792
0.002464,-1530,-48,-3043,-1618,1749,-3301
0.002458,-490,160,-3027,-1047,2561,-4948
0.001343,685,120,-3099,169,-5161,-408
0.004631,-1946,-6,-2921,-68,-2667,-986
0.001342,391,150,-3081,968,-278,-3390
0.001381,-1098,369,-3002,2576,-1171,-440
0.003544,-949,260,-3125,2878,-3915,2424
0.002455,-892,-419,-3156,-1431,846,-4887
0.001380,-1085,129,-3036,1702,3755,-3772
0.003609,983,-118,-3258,1854,-1020,-326
0.001351,-2068,-291,-3014,948,-7,-2536
0.002440,344,140,-3220,4453,-1982,-930
0.003579,-779,-262,-3317,1490,1611,-748
0.001348,-681,-521,-3439,2076,1489,358
0.002454,-195,-545,-3464,-447,-583,-2313
0.002448,-1189,-112,-3365,1511,967,1055
0.003545,622,-524,-3418,-104,1074,237
0.001344,-587,-611,-3276,243,-275,804
0.001350,49,-197,-3343,1908,-1721,-420
0.004642,-123,-534,-3435,-597,2819,-2396
0.001353,203,-495,-3488,-691,941,401
0.003567,132,-252,-3474,-811,-1015,-3280
0.001369,-717,167,-3274,3014,679,-14
0.001326,298,-525,-3421,22,-991,599
0.002473,-283,-910,-3434,-895,2785,-3056
0.003554,976,-403,-3468,-38,945,474
0.002479,626,-382,-3572,-1137,-5001,4271
0.001382,-942,-251,-3478,-1510,-704,1900
0.002459,691,-129,-3548,-1748,3367,268
0.003549,-325,-79,-3463,-2260,1352,1152
0.001373,991,-262,-3461,-2890,-3053,-1005
0.002460,-43,9,-3324,-2759,-2517,-1657
0.002438,726,177,-3443,-521,4145,-590
0.002465,631,237,-3461,-1185,-7889,6357
0.001349,-835,336,-3330,-1865,140,1018
0.003549,239,273,-3387,-2263,2665,1425
0.001366,438,354,-3446,-3573,-2491,-2396
0.002434,615,697,-3385,340,2816,-3368
0.003517,83,456,-3222,355,-7227,2701
0.001363,205,383,-3263,761,2538,-3481
0.002438,808,649,-3324,3480,1651,4649
0.002471,313,245,-3547,-1073,-5884,6374
0.003596,-1213,154,-3417,-2610,-628,-1892
0.001338,557,764,-3428,-442,853,-255
0.001351,781,365,-3600,-880,5058,-1386
0.004643,204,392,-3313,-2428,-5957,3116
0.001364,-768,1131,-3140,1565,3034,-1695
0.003549,1479,825,-3440,1911,-2539,2293
0.001349,-499,309,-3463,765,-2267,3933
0.001349,-95,417,-3473,-624,2835,-1035
0.004711,161,1136,-3327,2418,-449,-1522
0.002459,354,885,-3384,2906,-1183,1567
0.001367,-397,-240,-3350,501,3432,-2246
0.001368,506,-23,-3341,1084,1490,-3687
0.003599,612,767,-3396,4412,1499,2028
0.002473,700,78,-3544,1951,-3138,4904
0.001354,-348,-123,-3615,167,-635,3734
0.001375,-261,302,-3484,-51,4979,416
0.004597,395,92,-3559,792,-1127,2749
0.001346,373,-338,-3573,-1986,1262,43
0.002483,448,-114,-3432,-2753,3954,-2465
0.002477,1658,622,-3364,1705,-3413,4510
0.002465,-347,384,-3317,2343,-3868,4606
