timestamp,gyroscope_x,gyroscope_y,gyroscope_z,acc_x,acc_y,acc_z
1646821719.740535,-31,41,53,-49,-60,4
0.003549,-8,-14,4,-84,-18,-19
0.001304,15,-6,-10,-78,-19,11
0.001254,4,-12,-23,-97,-44,24
0.002348,-4,108,60,-96,-21,1
0.003426,6,22,30,-109,-41,-9
0.001272,21,-29,-24,-99,-48,-17
0.002346,-25,-5,10,-94,-50,32
0.003448,23,-47,-7,-101,-27,-12
0.002340,-7,-6,6,-102,-31,14
0.001246,6,37,1,-122,-47,12
0.003441,-12,11,-1,-110,-24,-36
0.002332,-9,15,10,-133,-64,8
0.001281,0,-41,-40,-100,-31,-9
0.004524,-13,4,-6,-104,-17,-22
0.001266,-8,-38,-20,-119,-60,-6
0.001253,-18,6,13,-115,-46,15
0.004591,-18,31,-4,-100,-38,-4
0.001269,23,-26,-14,-124,-3,-22
0.001249,-4,-1,45,-130,-1,-5
0.004530,12,15,-24,-85,-14,13
0.001255,-9,-18,-14,-98,5,9
0.002329,-21,16,-5,-103,2,1
0.003415,9,45,0,-88,13,6
0.001263,-77,69,16,-102,-9,-11
0.002333,51,-36,-4,-92,8,14
0.003422,-58,9,6,-99,46,-40
0.002339,36,11,-10,-75,31,10
0.001253,6,-41,-18,-98,-14,23
0.003409,-3,3,-12,-76,24,8
0.003446,-8,12,10,-105,33,-1
0.001238,-3,8,7,-62,-8,-19
0.002344,-1,56,-14,-63,44,-38
0.002349,-46,77,31,-75,23,14
0.001263,16,-30,-15,-67,22,-15
0.003421,-10,-3,-4,-75,-7,9
0.002340,29,23,-6,-84,19,-24
0.001245,12,21,2,-66,34,-51
0.003429,16,27,17,-36,26,-27
0.002513,-18,-20,-16,-77,-41,-19
0.002409,9,25,20,-49,19,10
0.001318,30,19,43,-57,31,-26
0.003515,-24,103,37,-62,7,0
0.002412,10,56,15,-39,8,-45
0.001321,-33,9,-24,-81,46,-44
0.002422,2,-30,-41,-48,-10,-4
0.003512,-16,-4,16,-53,4,-21
0.001348,-3,-10,-3,-71,16,-19
0.003537,-33,-31,0,-77,-29,-10
0.001309,0,-21,14,-64,20,-9
0.002413,-17,64,19,-50,17,1
0.003529,-20,27,-18,-66,-11,3
0.001325,14,15,-12,-59,-43,22
0.002428,-29,-16,-13,-47,14,0
0.003529,-2,-23,-6,-69,-28,-7
0.001326,-12,43,-10,-48,42,26
0.002444,-32,-21,-21,-61,-35,41
0.003535,-28,-2,-40,-58,-14,21
0.001325,-22,28,15,-68,13,-11
0.002475,-32,19,-28,-64,-43,38
0.002438,-28,82,51,-25,-18,23
0.002514,-28,22,12,-69,17,-4
0.002444,21,-36,-13,-67,-35,51
0.002416,3,-34,7,-39,-88,68
0.002436,-2,-36,-16,-78,18,-21
0.001321,27,-10,11,-66,-34,81
0.004707,-10,6,-26,-74,-61,74
0.001335,31,-46,-19,-86,-10,30
0.001310,-21,27,31,-60,2,49
0.002426,-19,-1,-8,-58,-75,38
0.003536,-22,79,-10,-71,-36,40
0.001317,-3,18,30,-72,-10,-3
0.002432,-15,-46,-7,-81,-31,22
0.002424,-8,-22,32,-92,-38,72
0.003518,10,-24,23,-95,9,-4
0.002421,-16,-35,9,-74,12,-7
0.001325,-22,0,-10,-57,-75,26
0.002459,-30,-11,4,-57,30,-9
0.002411,5,-25,27,-94,13,-4
0.002427,-35,10,63,-95,-26,-2
0.002412,-8,-7,9,-54,-22,20
0.001332,-49,35,3,-67,40,-5
0.004632,27,-23,-19,-61,-42,7
0.001302,11,-33,9,-64,1,11
0.001325,14,-58,29,-113,8,-14
0.004631,50,-55,10,-93,-30,15
0.001302,6,3,30,-93,-57,46
0.002427,-1,28,72,-125,26,-14
0.002427,-26,-16,33,-107,-3,2
0.002418,29,-63,1,-89,-12,36
0.002434,-6,-64,-12,-86,-56,30
0.002418,22,-3,29,-101,21,11
0.002419,26,-40,2,-126,-23,0
0.002427,10,11,26,-117,-18,18
0.002418,22,16,24,-123,-6,16
0.002438,-12,-74,16,-129,12,-31
0.001328,11,-61,26,-123,11,-21
0.003527,-18,-39,3,-131,-2,41
0.002425,-8,20,19,-130,13,22
0.001333,-14,-20,12,-131,19,56
0.002420,19,-40,40,-118,21,2
0.003515,3,-58,36,-112,31,6
0.001294,8,3,42,-146,0,14
0.002417,27,1,6,-131,22,15
0.002419,10,-30,-19,-87,11,-6
0.003593,24,-9,-19,-120,44,-30
0.001319,-41,-5,6,-132,59,-5
0.002428,34,-40,-9,-120,-6,20
0.002427,-4,-105,0,-105,43,11
0.002427,-26,40,28,-85,55,-27
0.002425,6,-48,-33,-66,32,20
0.002450,-41,-19,-55,-111,16,-25
0.001322,9,-29,7,-73,72,-11
0.004633,-22,8,41,-100,24,13
0.001311,39,4,57,-75,20,-39
0.001414,12,-16,-2,-89,71,-46
0.003587,-17,21,11,-46,18,-16
0.002442,-6,11,-14,-56,63,-39
0.002440,-8,36,-10,-50,53,-25
0.002442,8,25,-20,-25,28,-63
0.001526,10,-17,-32,-94,15,-42
0.003535,-11,7,-30,-65,59,-60
0.002481,0,47,19,-73,4,-26
0.001356,-14,-13,-10,-66,46,-17
0.002436,15,26,21,-66,46,-17
0.002401,-5,-9,-7,-50,49,-39
0.003517,7,-41,-23,-65,9,-39
0.001336,-25,7,-34,-45,23,16
0.002420,-16,13,26,-81,43,-32
0.002416,14,7,-16,-61,28,-21
0.001433,-11,-3,-20,-77,13,9
0.004848,31,14,-7,-79,39,-6
0.001317,-10,72,41,-61,28,3
0.001314,56,17,22,-32,-26,35
0.002443,-17,-61,-41,-65,49,8
0.003527,20,-34,-26,-66,17,28
0.002432,-34,-32,-14,-56,-25,94
0.001306,-14,-2,22,-82,5,37
0.002383,38,2,1,-86,44,24
0.003539,-69,25,17,-104,-55,58
0.001295,56,7,-3,-67,12,9
0.002426,10,-27,-18,-110,1,-19
0.003530,44,-30,-1,-104,19,12
0.001337,38,-60,-10,-97,-27,55
0.003525,28,62,60,-93,-8,15
0.001313,-11,23,1,-101,11,6
0.001387,-14,-28,-15,-71,-24,40
0.003512,27,-7,-7,-87,-26,6
0.002462,-6,49,44,-75,-1,10
0.002428,22,-17,-17,-74,-29,-9
0.002432,20,-12,-25,-68,-20,22
0.002445,-2,16,-16,-106,-26,-24
0.002411,12,35,-32,-76,16,9
0.001309,8,17,18,-56,-65,15
0.003543,-27,59,-15,-85,-40,-65
0.002427,-6,10,-52,-78,-4,-46
0.001303,20,-3,34,-52,-46,5
0.002393,18,38,71,-53,0,4
0.003503,-2,7,36,-61,-1,-4
0.001324,16,-11,9,-42,-14,-48
0.003520,2,-31,-27,-51,-82,0
0.001317,6,1,-32,-77,-40,-61
0.002543,-6,35,51,-80,-3,-55
0.003549,8,-26,19,-88,-78,9
0.001362,-16,-12,-47,-45,-37,-24
0.002435,14,24,18,-83,-2,-60
0.003545,33,-2,8,-72,-49,-50
0.002425,-1,18,1,-60,-67,-10
0.001344,15,-1,-21,-80,-8,-35
0.001329,-6,33,15,-95,-27,-25
0.004651,2,-9,-7,-72,-68,17
0.001341,3,-72,-20,-103,-27,-62
0.001339,16,-15,40,-100,-47,-20
0.003539,-15,77,11,-72,-86,29
0.002453,-5,-12,-4,-86,-39,13
0.001322,9,-13,16,-103,-27,-8
0.003520,-3,-30,18,-93,-51,32
0.001316,10,11,24,-75,-43,24
0.003586,-26,45,21,-78,-47,12
0.002394,9,50,2,-106,-47,5
0.001312,8,18,19,-75,-110,19
0.002425,-29,14,27,-105,-32,17
0.003533,-10,3,28,-99,-12,14
0.002429,8,-3,-7,-116,-105,58
0.001307,16,-9,0,-45,-45,19
0.002571,3,41,49,-83,-13,-29
0.003581,-13,-32,-32,-61,-47,1
0.001347,-14,24,48,-78,-65,42
0.002431,-10,4,31,-64,28,-5
0.002434,34,-70,-25,-68,-6,20
0.001402,-13,-52,-61,-53,-37,25
0.003526,9,-23,-16,-56,-52,-6
0.002431,-16,44,27,-59,-49,6
0.001312,-5,3,19,-55,18,-52
0.002455,-13,38,23,-45,-55,16
0.003532,-50,7,14,-48,-23,25
0.002453,12,-45,-9,-50,-18,-26
0.001317,4,60,25,-56,-78,11
0.003541,6,-3,15,-50,-23,-19
0.002445,-28,-39,0,-84,-7,-52
0.001337,-17,43,-30,-59,-52,-6
0.003544,-44,-9,17,-24,-15,-17
0.002478,-20,17,18,-55,14,-30
0.001311,21,29,19,-32,5,-36
0.002431,14,-16,31,-23,-70,-9
0.002422,0,-52,0,-47,-29,-50
0.001456,38,-7,7,-31,35,-88
0.003681,-12,-11,50,-41,-38,-30
0.002447,-24,19,-15,-69,-9,5
0.002426,-27,27,8,-51,36,-57
0.001370,-20,-19,-8,-27,-37,-16
0.003529,-38,42,-8,-52,-9,-9
0.003507,14,10,36,-44,8,-18
0.001315,-9,66,-14,-54,23,-26
0.002453,-13,59,11,-39,15,5
0.002424,-79,-9,-19,-52,51,-6
0.001309,-27,7,-25,-43,-7,6
0.002475,12,28,-21,-13,-20,28
0.003525,1,-9,-22,0,53,-2
0.001308,23,27,23,-50,48,0
0.002399,-24,9,3,-37,11,35
0.002400,9,14,-28,-40,3,43
0.003568,-27,14,9,-57,59,23
0.001315,-2,52,2,-36,-13,33
0.002398,4,7,-44,-7,26,67
0.002399,-4,3,4,-16,40,35
0.002426,-27,30,-12,-35,44,86
0.002424,-7,-11,5,-25,15,70
0.002447,-22,-3,-25,-64,37,74
0.001374,-14,-35,-29,-33,0,74
0.004632,-11,-16,-27,-67,24,71
0.001310,1,9,-8,-51,26,73
0.001309,24,17,13,-53,44,68
0.003527,12,-88,-23,-99,-3,89
0.002418,12,-62,-1,-92,43,106
0.002400,0,-68,7,-131,96,11
0.001343,48,-23,-5,-129,30,60
0.002478,20,-5,7,-110,91,54
0.003521,11,22,-13,-103,79,37
0.001315,-5,-22,7,-118,27,85
0.002436,-13,-66,-12,-76,55,69
0.003522,25,12,24,-55,130,34
0.001335,32,-35,-31,-53,-1,111
0.003516,0,-66,-30,-84,52,18
0.001335,25,-12,34,-56,129,9
0.002420,20,-15,18,-51,-49,78
0.003492,6,-6,-13,-14,14,2
0.001331,24,-18,51,-86,131,-51
0.002532,7,-75,18,-59,-37,72
0.002446,-35,-7,41,-65,37,-29
0.002435,-3,-74,13,-24,87,-50
0.002422,21,-70,0,-72,-61,67
0.001351,-20,-37,44,-96,112,-103
0.003520,2,-52,1,-92,64,-120
0.002443,18,-21,-20,-21,-111,41
0.001321,-41,0,27,-79,123,-58
0.004644,47,-89,14,-193,143,-87
0.001349,4,6,8,-115,-111,0
0.002447,-20,-46,9,-151,92,-122
0.001374,5,-2,40,-117,198,-197
0.003523,30,-45,-2,-152,-53,58
0.002429,-27,-50,21,-178,7,-28
0.001346,14,-9,-12,-121,243,-193
0.002424,72,-48,-22,-199,-6,2
0.003535,-26,0,25,-130,-112,-4
0.001373,11,-21,-2,-140,219,-107
0.003548,59,-14,-8,-102,151,-85
0.001333,28,18,-20,-141,-85,20
0.002445,-16,46,-2,-137,10,-21
0.002458,-11,-4,-5,-114,185,-154
0.002456,17,-47,-26,-129,-28,-69
0.001342,-10,10,-1,-96,-123,30
0.003563,-59,22,-12,-127,105,-160
0.002431,32,15,16,-161,65,-80
0.002417,-5,4,-6,-153,-125,0
0.001332,-33,74,-13,-162,7,-52
0.003543,26,4,-45,-205,164,-103
0.002468,10,48,-43,-232,-78,69
0.001353,-2,-19,-74,-214,-110,42
0.003546,5,20,-15,-177,94,-10
0.002442,41,8,-24,-156,110,-68
0.001349,-1,-4,-45,-163,-181,77
0.002454,-20,44,-24,-184,-139,34
0.002462,31,44,-22,-163,79,-59
0.002484,33,28,-10,-101,29,55
0.002460,26,20,-28,-154,-171,142
0.002444,-8,90,12,-184,-173,-40
0.002450,32,-2,-12,-130,-65,-36
0.002446,-15,46,-68,-155,16,-25
0.002480,43,52,27,-135,-132,30
0.002457,19,59,-11,-109,-177,59
0.001390,-38,24,-28,-141,-66,-34
0.004681,30,6,-9,-111,-21,3
0.001313,1,59,36,-82,-39,22
0.001347,13,11,-30,-120,-243,67
0.002447,-62,-7,-2,-126,-127,29
0.003540,-1,5,-3,-135,65,-101
0.001329,32,4,-18,-78,-69,-16
0.002457,-47,22,-18,-84,-253,112
0.002449,-34,67,58,-59,-192,-67
0.004640,21,18,19,-37,116,-81
0.001325,-32,38,-33,-83,-24,2
0.001340,-1,43,33,-117,-415,112
0.002435,-82,34,27,-56,-45,-14
0.001437,25,56,29,-60,199,-169
0.004642,58,-21,14,-80,-251,66
0.001345,-56,77,39,-48,-321,116
0.001336,3,-53,-27,-83,61,-176
0.003577,52,-44,-36,-73,123,-103
0.002465,-12,27,15,-126,-330,176
0.001350,-23,-22,14,-100,-225,49
0.002485,-4,-5,37,-115,264,-105
0.002434,58,6,26,-114,-36,41
0.003575,-8,12,10,-63,-373,200
0.001327,-37,5,-12,-36,-24,13
0.002436,12,-7,16,-59,199,-136
0.002556,15,-27,-12,-30,-124,117
0.002452,-49,37,54,-60,-245,105
0.003517,-38,7,9,-29,66,-92
0.001307,18,18,0,-43,51,12
0.001338,25,-31,28,-34,-136,59
0.003533,-45,33,20,-43,-43,-1
0.002419,-4,47,-16,-29,36,-4
0.001343,23,-53,-29,-63,-108,81
0.002467,-10,-35,-6,-21,146,-39
0.003540,19,-24,14,-56,150,-35
0.002458,14,51,12,-55,-333,219
0.001335,-78,24,57,-22,41,24
0.002489,27,56,46,-13,384,-198
0.003542,55,37,-4,-66,-220,164
0.001364,-31,16,9,5,-267,165
0.003771,-31,-40,-2,-10,275,-183
0.001348,92,-27,-28,-1,112,-67
0.002450,-52,-15,28,-13,-238,128
0.002432,-51,-19,-20,-28,-86,4
0.002445,2,5,17,-5,190,-107
0.001319,33,14,-11,-19,26,13
0.003543,-21,-50,-16,-11,-162,91
0.002423,-4,-49,-21,3,-29,-15
0.002430,-12,19,-4,-15,100,-43
0.001354,-19,29,35,3,79,-9
0.003511,-21,13,-3,26,-65,38
0.002419,-20,-32,-36,1,-24,34
0.002408,1,28,24,48,109,-89
0.003544,-9,48,27,35,-8,41
0.001320,-69,0,-20,28,-45,20
0.001326,-47,0,-24,-23,66,-18
0.002416,-34,-11,22,20,13,-1
0.003505,9,-14,55,29,44,-10
0.001337,23,-34,7,-15,16,-51
0.002410,-6,-2,19,11,-93,46
0.002415,-19,-12,19,5,32,-33
0.003517,1,48,19,-14,103,-99
0.001346,-1,0,7,-14,-115,74
0.002479,-54,-14,-28,-6,-23,40
0.002493,-15,-25,-1,-27,84,-70
0.002393,31,2,-4,-10,4,32
0.003576,-20,52,14,-61,-96,15
0.001323,-39,-16,11,-21,21,28
0.001297,16,2,15,-35,99,-4
0.003484,25,2,-2,-87,21,1
0.002484,7,-34,-1,-62,-75,114
0.001342,-13,-36,-31,-64,38,-45
0.002476,11,-41,0,-85,49,-22
0.003595,-30,-2,16,-43,-37,7
0.002419,-8,-61,13,-45,-98,4
0.001302,-6,1,1,-31,66,-30
0.002402,-1,6,29,-39,69,-6
0.003544,-22,17,24,-101,-234,31
0.001317,-21,48,3,-18,47,-13
0.002451,26,-16,-41,-49,131,-112
0.002427,2,25,-10,-30,-105,36
0.002419,-38,48,20,-56,-83,51
0.003553,-14,-37,-14,-43,172,-138
0.001337,-12,14,-9,-43,39,50
0.001420,-50,-41,-25,-47,-163,91
0.004667,-63,48,29,-64,19,-80
0.001371,-10,21,-24,-26,152,-69
0.002468,19,-35,-58,-76,-107,64
0.002438,-48,28,21,-73,-133,61
0.001375,-24,45,12,-51,177,-69
0.003611,14,21,-21,-61,40,-21
0.002481,-3,-63,-46,-68,-306,181
0.002440,-47,-36,-1,-50,28,-53
0.001371,16,-18,-37,-81,228,-150
0.003580,40,-11,-22,-89,-214,150
0.002434,-66,59,-7,-57,-201,107
0.001333,13,6,-25,-76,252,-152
0.003613,57,-1,17,-114,-43,32
0.002476,-27,4,-3,-117,-320,139
0.001373,-27,-34,-30,-77,184,-126
0.002441,40,-25,5,-147,172,-66
0.002465,-25,17,-13,-141,-323,175
0.001346,-48,-14,29,-96,-73,2
0.003606,-20,80,32,-141,377,-166
0.002542,51,11,-12,-155,-133,142
0.002538,-97,26,29,-144,-353,169
0.001353,-55,1,-12,-130,335,-136
0.002447,80,-66,-39,-89,169,-52
0.003613,-23,34,12,-123,-426,247
0.001353,-32,-38,-13,-35,-60,45
0.002435,26,-6,8,-48,447,-270
0.002419,53,4,3,-117,-163,75
0.001344,-63,-9,27,-19,-419,234
0.003550,-81,33,51,-66,282,-206
0.002469,66,-58,-11,-123,236,-146
0.001354,-13,-29,-3,-98,-457,229
0.002433,-94,37,19,-82,-4,-54
0.003562,31,10,-19,-148,344,-237
0.002438,21,35,27,-118,-205,134
0.001413,-50,-31,13,-109,-192,105
0.002459,-7,-9,-27,-138,304,-207
0.003529,30,2,19,-139,-76,49
0.001372,-28,-63,-20,-118,-191,169
0.002456,-24,-47,-7,-131,193,-99
0.002441,28,-39,-28,-181,10,-5
0.001400,-59,-35,-41,-142,-235,133
0.004668,-78,-31,-19,-104,77,-47
0.001334,-6,-15,17,-149,59,-73
0.001426,-6,-10,6,-127,-122,23
0.003535,-59,92,19,-121,-88,66
0.002428,-35,78,-2,-115,72,-19
0.002430,14,-3,-36,-146,67,-37
0.002501,-18,-4,-32,-139,-106,63
0.001327,-42,8,-7,-147,-117,8
0.002527,8,-14,2,-113,193,-124
0.003521,-18,65,-6,-139,0,18
0.001334,11,-2,3,-115,-220,129
0.002451,-37,13,-22,-137,113,-82
0.004683,4,-22,18,-129,131,-133
0.001351,-20,14,35,-106,-187,122
0.001342,-44,-29,34,-87,-54,-16
0.002452,-37,44,62,-107,148,-133
0.002472,49,-42,-36,-90,-31,16
0.002483,-35,17,-20,-114,-163,45
0.003547,-53,-10,-36,-155,33,-32
0.001353,-21,-7,15,-110,118,-116
0.001344,-32,-9,-30,-84,-110,31
0.002514,-58,80,39,-106,-126,12
0.003549,-16,-5,-12,-150,70,-101
0.001316,10,-2,21,-126,-71,9
0.002468,-1,49,-35,-132,-141,75
0.002445,-30,43,-10,-102,70,-94
0.003516,65,5,-19,-106,44,1
0.001352,-47,1,-33,-128,-241,111
0.002485,-48,25,14,-109,90,-42
0.002437,22,-46,-2,-116,79,-42
0.002445,-18,-29,8,-93,-292,156
0.002428,-84,23,19,-94,51,-29
0.002428,13,13,42,-84,186,-90
0.001350,15,-14,28,-100,-189,152
0.004628,-90,-2,29,-84,-94,71
0.001342,-30,29,22,-87,198,-121
0.001298,7,64,25,-81,23,56
0.003546,-56,-8,-35,-65,-132,100
0.002449,-23,24,-20,-74,58,-4
0.002417,27,22,4,-102,191,-61
0.002493,-24,-13,12,-103,-58,52
0.001342,-15,-22,0,-85,-159,136
0.002540,-93,49,4,-109,195,-134
0.003511,40,45,42,-126,68,0
0.002462,-48,-14,3,-77,-230,156
0.001336,-38,-21,6,-63,110,-65
0.002428,9,18,4,-113,171,-107
0.003552,-33,-26,22,-76,-207,134
0.001309,-46,8,49,-43,35,20
0.002434,13,-33,11,-95,198,-60
0.002453,-16,24,25,-109,-122,163
0.002428,-53,51,39,-87,-74,87
0.002452,-24,-33,-1,-120,140,-51
0.002446,11,-6,-1,-71,-36,59
0.002428,-67,15,21,-75,-24,89
0.002412,0,-25,0,-101,21,54
0.002419,-18,65,81,-91,-1,46
0.002428,-8,-42,4,-90,132,-11
0.001325,24,-21,3,-116,-74,62
0.003521,-33,5,23,-92,-76,92
0.002434,15,-4,-3,-100,247,-83
0.001316,16,-5,27,-108,18,14
0.002444,-61,0,52,-100,-295,172
0.003588,-32,-58,7,-76,280,-126
0.001348,25,11,-42,-120,137,-75
0.003546,-37,21,3,-112,-327,195
0.001359,-97,-18,-28,-103,154,-74
0.001422,-5,-6,35,-123,331,-132
0.004664,31,-22,-6,-144,-350,181
0.001330,-95,48,3,-102,32,-18
0.002478,3,-36,-23,-133,427,-243
0.002492,21,15,21,-119,-155,129
0.002464,-105,-3,41,-119,-196,112
0.002452,10,13,-14,-111,449,-203
0.002398,58,-4,2,-94,77,43
0.001345,-23,-15,-9,-84,-240,156
0.003544,-40,-23,11,-80,151,-52
0.002452,29,-37,-16,-76,338,-161
0.002466,13,29,-27,-91,-61,63
0.001334,-30,23,-13,-72,-89,80
0.002504,-6,-5,-24,-103,230,-140
0.003563,17,41,18,-86,294,-89
0.001343,40,-35,-1,-103,-84,135
0.003561,-49,27,-13,-103,-88,9
0.001363,23,35,-44,-115,338,-209
0.001403,36,84,15,-109,141,-67
0.003526,26,88,19,-87,-228,117
0.002459,-6,-15,-7,-77,156,-106
0.001342,56,-16,-6,-124,197,-82
0.002427,34,11,-6,-46,-85,129
0.003526,-35,56,-8,-75,13,-61
0.002449,29,41,-8,-105,13,-125
0.001323,6,75,-14,-65,-86,-9
0.002426,3,47,-25,-83,113,-99
0.003526,34,31,-15,-79,27,-35
0.001345,-4,-18,5,-55,-153,82
0.003530,-24,-4,21,-128,0,-97
0.002429,27,52,-25,-98,65,-81
0.001327,-24,72,2,-88,-41,-74
0.002429,4,37,18,-133,-109,27
0.002425,4,-31,-28,-70,-72,64
0.002574,-23,-35,-63,-110,117,-40
0.002406,36,26,8,-61,60,-43
0.002451,-2,76,43,-90,-286,102
0.002453,-14,3,-10,-155,-162,-46
0.001420,-33,91,-4,-145,233,-128
0.003525,30,26,13,-156,-18,50
0.002460,-50,-18,-1,-172,-323,222
0.001342,-4,-30,-42,-138,111,12
0.002414,7,15,3,-170,174,-53
0.003553,54,23,-20,-87,-226,162
0.001352,-45,39,20,-120,-141,129
0.003546,-14,42,50,-146,100,-98
0.001356,-5,40,20,-114,50,67
0.003754,-6,-24,-1,-103,-70,131
0.001347,6,18,36,-132,-117,69
0.002403,3,-30,18,-43,81,20
0.002420,-39,-19,-20,-53,95,-6
0.001380,16,15,37,-69,-140,135
0.003551,-29,10,37,-92,-35,40
0.002433,-4,-24,30,-63,80,-46
0.001321,35,-40,20,-75,15,33
0.003599,-16,30,14,-72,-75,41
0.002458,2,11,-10,-18,-80,33
0.001302,13,2,-8,-43,34,-3
0.003571,-55,87,62,-91,98,-55
0.001323,30,29,43,-27,-28,42
0.002681,-27,-13,15,-49,-165,123
0.003619,10,31,41,-98,75,-77
0.001345,52,-52,-26,-43,220,-62
0.002526,43,-112,-15,-86,-119,118
0.002448,4,-58,-31,-28,-156,77
0.001389,34,25,4,-6,163,-133
0.003560,33,-34,-8,-74,84,-12
0.002474,16,-8,44,-83,-139,88
0.002421,2,-21,3,-59,-110,53
0.001349,10,22,11,-65,111,-58
0.003528,27,47,22,-32,74,-38
0.002461,-10,34,52,-31,-90,41
0.001325,20,-12,15,-34,-52,24
0.004659,-12,-36,33,-38,9,-19
0.001317,6,-33,8,-36,105,-70
0.001311,3,-18,5,-22,-32,13
0.002448,-18,6,7,-13,-121,43
0.003559,10,-27,-13,17,35,-24
0.001338,-19,-41,14,5,152,-67
0.002407,-8,29,56,32,40,-2
0.002413,5,8,29,1,-146,103
0.002547,-21,-24,19,7,63,-45
0.002464,78,-72,8,31,287,-103
0.002472,34,-22,17,10,-21,104
0.002492,-18,18,2,-7,-108,117
0.001363,-40,45,27,36,158,-87
0.002507,11,53,23,23,276,-104
0.003548,93,-55,-27,21,-69,109
0.001339,-57,13,-6,-9,-149,90
0.002415,26,6,19,4,318,-118
0.002439,44,-7,-3,27,266,-91
0.002465,21,21,-17,-4,-237,229
0.002431,-18,23,32,22,77,13
0.002431,68,50,8,-21,411,-167
0.002423,73,21,12,-27,-47,89
0.002474,-46,-16,-36,7,-101,129
0.002459,11,-2,-18,-34,359,-166
0.002424,81,11,-15,-13,72,18
0.001287,3,18,-43,1,4,25
0.003566,16,2,-10,-39,129,-48
0.002427,-14,3,5,-15,53,-23
0.001370,12,-4,-44,-26,38,-31
0.003557,29,14,-25,5,117,-39
0.001425,34,30,7,35,14,-9
0.002448,23,-27,20,7,-15,-58
0.003542,38,25,-16,39,24,-6
0.001311,52,9,-31,2,142,-80
0.002520,68,35,-22,67,-18,15
0.003520,-9,27,1,90,-70,54
0.001322,-7,19,-27,44,97,-56
0.002429,12,64,21,20,64,-12
0.002409,3,35,-7,16,-73,46
0.003598,19,-28,-43,43,-151,56
0.001311,4,57,26,26,-11,-65
0.002441,30,-26,-19,-23,75,-79
0.002542,42,-22,-39,8,-249,119
0.002430,-62,7,-17,64,-52,36
0.002445,27,4,-6,-26,10,-40
0.002414,22,43,4,-25,-80,92
0.002446,18,11,-19,-65,-173,109
0.003619,-2,-33,10,-73,-197,90
0.001378,29,-62,6,-114,-42,-5
0.001345,48,-5,5,-101,-108,110
0.002493,-4,37,-9,-115,-231,70
0.003531,22,21,-23,-95,-107,31
0.002423,23,-2,-8,-125,-64,-5
0.001362,-6,17,-51,-143,-228,69
0.002488,-27,-59,-65,-160,-234,40
0.003593,-19,-58,-51,-81,-152,0
0.001339,9,24,-33,-140,-229,22
0.002474,-44,-2,-3,-53,-129,-23
0.002449,-61,-1,-58,-89,-209,49
0.001364,10,-34,-42,-119,-209,19
0.004829,-35,36,11,-58,-149,-38
0.001421,20,-3,-27,-56,-221,21
0.001330,-24,67,4,-56,-165,11
0.002461,-26,-16,-22,-61,-178,14
0.002504,-28,20,-24,-40,-225,-8
0.003608,-42,57,19,-23,-155,-65
0.001354,-32,-21,10,-56,-265,-84
0.002512,-51,43,1,-21,-132,-28
0.002491,15,-22,-39,-41,-268,-7
0.001420,-40,35,-24,-30,-180,-66
0.003553,-52,2,0,-52,-174,-14
0.002452,-26,-51,-12,-80,-233,0
0.001361,-45,-54,-25,-65,-189,-41
0.004703,-33,-14,-27,-77,-162,-61
0.001329,-22,1,10,-96,-243,-2
0.001355,-49,-31,29,-94,-216,43
0.002464,-65,-43,-18,-122,-155,20
0.002462,4,-41,-55,-121,-181,-9
0.002634,-33,4,36,-134,-249,8
0.002513,-51,-23,9,-168,-184,-1
0.002465,-36,-49,15,-164,-100,-65
0.002455,-40,-27,-5,-161,-256,44
0.001353,-48,-15,13,-132,-231,28
0.003595,-79,-3,-19,-180,-117,-16
0.002467,-10,-44,-28,-158,-146,-19
0.001372,-53,32,42,-142,-152,-15
0.003632,-46,5,22,-150,-145,8
0.003539,-37,59,61,-157,-60,-27
0.000244,-70,50,35,-154,-121,-28
0.002457,-36,24,15,-159,-51,-41
0.002445,-42,13,12,-117,-79,-57
0.002450,-60,29,1,-153,-119,-12
0.002443,-50,0,20,-116,24,-81
0.002444,-76,56,46,-102,-26,-51
0.002427,-10,48,43,-94,26,-16
0.001317,-33,3,10,-125,63,-9
0.003554,-56,-44,30,-160,-38,-48
0.002425,-69,44,67,-52,63,-39
0.001355,-8,53,66,-87,183,-112
0.004601,-19,23,55,-88,9,0
0.001331,-91,39,80,-51,132,-27
0.001340,-75,48,53,-71,177,-136
0.002453,-18,36,44,-43,193,-50
0.002514,-66,67,45,-73,214,-49
0.003536,-44,-25,10,-105,45,-29
0.001326,-59,32,54,-33,125,25
0.002497,-66,37,70,-89,330,-131
0.003533,5,59,45,-11,171,-21
0.001324,-76,-1,15,-48,146,34
0.002431,-54,55,26,-98,180,-80
0.002424,-9,45,7,18,325,-68
0.001335,-45,34,-6,-52,257,-35
0.004631,31,31,65,-63,188,-21
0.001325,-60,32,41,-50,299,20
0.001323,-44,14,7,-64,279,-76
0.003552,-5,11,-9,-14,226,53
0.002409,2,9,28,-24,346,-12
0.002415,1,28,52,-59,240,-32
0.001368,-13,8,25,-38,223,100
0.003523,-20,16,40,-59,324,18
0.002462,22,44,29,-51,331,47
0.001360,-15,-22,40,-28,225,165
0.002421,-29,8,62,-80,229,11
0.003508,-2,0,46,-61,284,42
0.001339,27,17,-21,-55,275,66
0.003514,7,16,-2,-49,247,68
0.002396,0,27,4,-55,364,66
0.001313,-31,5,14,-85,202,34
0.002413,-5,78,38,-47,164,85
0.002447,-43,19,-7,-56,342,66
0.003554,14,87,55,-83,277,15
0.002411,63,13,11,-36,178,115
0.001298,-5,9,8,-58,132,56
0.002444,65,-67,-35,-64,222,21
0.002429,30,-1,-11,-57,213,63
0.002426,34,36,-33,-29,111,20
0.002443,36,-1,-12,19,167,35
0.001332,18,36,-25,-85,285,-40
0.004610,31,-9,-31,-44,153,7
0.001308,13,-10,0,-33,-6,68
0.001322,10,51,10,-22,73,9
0.003538,11,12,-15,-22,189,-86
0.002472,19,29,-12,25,131,-30
0.002404,9,15,0,-30,108,-4
0.001327,38,-56,-57,-40,38,50
0.003527,85,-71,-34,16,81,-27
0.002465,5,-75,-12,-88,84,-22
0.001310,79,-26,2,-41,12,23
0.002427,-1,-47,-7,-33,-82,42
0.003536,18,-13,-54,-43,18,-20
0.001326,42,-85,-69,-68,-55,1
0.003546,33,-76,-25,-115,84,-59
0.001376,54,0,6,-71,-203,117
0.002442,21,4,0,-86,-28,14
0.002441,41,-15,-29,-156,-56,4
0.002469,48,-9,-9,-104,-45,32
0.002447,37,4,-8,-147,-207,47
0.002437,19,91,4,-142,-40,-42
0.002444,51,30,13,-178,-186,56
0.002450,30,-29,-39,-125,-85,26
0.001397,21,-54,-57,-171,-221,59
0.003556,23,-35,-87,-131,-69,26
0.002461,35,-48,-55,-144,-233,43
0.001364,28,-64,-91,-137,-151,-27
0.003617,59,-44,-45,-128,-272,27
0.002466,-10,17,-27,-137,-112,-91
0.001343,50,-29,-4,-148,-288,-1
0.002442,-4,5,33,-160,-206,-34
0.002449,-9,48,17,-176,-262,-28
0.003569,-9,26,-34,-137,-255,-27
0.001356,34,60,-12,-146,-255,-54
0.002457,-18,41,-1,-166,-233,-26
0.002433,-2,12,5,-152,-311,23
0.001416,12,-36,-52,-159,-163,-47
0.004997,51,-44,-55,-159,-310,-2
0.001361,73,-31,-22,-142,-251,-42
0.001334,14,-8,2,-175,-281,-28
0.003553,-4,45,6,-161,-212,-55
0.002477,-4,13,-6,-201,-285,-16
0.001373,-31,-15,5,-187,-251,-44
0.002439,18,9,-8,-207,-301,-34
0.002487,-28,-18,-38,-169,-134,-23
0.002435,14,-13,9,-203,-208,-10
0.002510,-16,-70,-39,-178,-292,29
0.002462,-7,20,-30,-211,-284,-19
0.002472,-14,49,-1,-156,-100,-28
0.001336,-8,-12,0,-196,-201,28
0.003539,-34,1,25,-192,-217,77
0.002444,9,-16,-29,-202,-111,32
0.001351,-25,-24,-7,-200,-206,53
0.004639,-53,-6,5,-191,-174,17
0.001342,-19,27,-17,-176,-85,14
0.001351,-15,2,-22,-217,-121,-10
0.002623,-31,3,56,-170,-172,68
0.002449,-35,15,31,-179,-77,5
0.002438,-24,61,29,-174,-90,54
0.002474,-28,-35,-16,-240,-47,-11
0.002446,11,-20,-9,-182,-72,13
0.002447,-52,-60,15,-176,-54,27
0.001334,-24,-4,17,-153,-70,13
0.003530,0,-37,29,-142,-70,39
0.002445,-47,-11,18,-148,-14,32
0.001334,-29,21,32,-158,17,-19
0.004617,-56,7,33,-153,-65,49
0.001343,-28,-28,39,-152,48,-35
0.001334,-38,38,30,-167,58,-28
0.002437,-36,35,63,-136,-10,-9
0.003529,-26,-27,26,-91,24,17
0.002438,-18,-82,7,-126,81,-22
0.001329,-53,-57,28,-82,75,-13
0.002491,-17,-25,1,-123,81,-27
0.003530,-53,-26,36,-90,62,-2
0.001318,-35,14,45,-84,96,18
0.002418,-60,8,19,-83,147,-1
0.002410,-8,7,48,-65,72,-24
0.002477,-28,-23,53,-28,170,-8
0.003530,-12,-13,25,-76,138,-32
0.001339,-42,25,39,-52,135,-31
0.001329,-30,13,27,-71,98,-16
0.002519,-54,29,42,-48,82,-17
0.003587,-51,77,58,-31,174,-21
0.002438,-30,-5,14,-10,288,-98
0.001336,8,-38,38,-72,45,78
0.002505,-59,-3,15,-13,140,34
0.003556,-23,1,21,-40,229,-49
0.001318,4,28,24,-51,75,-3
0.002417,-14,8,45,-19,113,5
0.002475,-33,-64,48,-7,179,-45
0.002458,2,-28,10,-44,232,-86
0.002419,6,-10,3,-18,50,25
0.002450,-42,-30,18,-48,176,-33
0.001321,-6,3,44,-51,165,-16
0.003562,-36,25,22,-72,93,-14
0.002429,-10,5,36,-51,121,7
0.002442,-9,-10,10,-56,180,-63
0.001329,-13,-24,34,-45,99,24
0.003563,-28,7,70,-44,149,-24
0.002506,-33,-32,18,-29,119,62
0.001363,-56,-12,22,-71,179,-48
0.002423,5,45,6,-11,58,103
0.002493,-9,-49,9,-65,113,38
0.002437,-23,-61,14,-45,208,34
0.003535,-21,-43,-9,-74,77,33
0.001285,3,0,0,-26,76,77
0.001333,-45,39,28,-66,138,-72
0.004687,42,-23,-42,-26,141,-17
0.001351,-23,12,-32,-76,-61,42
0.002410,0,9,0,-40,150,-16
0.002472,-18,-21,-42,-50,33,-21
0.002477,15,-16,-10,-21,102,-6
0.002429,11,-4,-21,-47,-24,28
0.002397,7,13,-15,31,100,-67
0.001329,-8,45,17,-44,-62,6
0.003556,4,-7,-27,-31,85,-61
0.002428,8,41,-7,-73,-85,47
0.002434,-19,63,16,-11,79,-72
0.001312,16,5,11,-78,-85,17
0.003540,-35,23,35,-24,8,-48
0.002466,-22,-8,6,-63,-91,7
0.001365,19,-41,-24,10,100,-118
0.003516,9,-24,4,-58,-116,64
0.003676,-11,-51,22,-51,-4,-55
0.001338,42,6,-13,-80,-126,-10
0.001358,-22,56,15,-38,-21,-119
0.002441,37,-20,-45,-64,-172,5
0.001328,-29,5,-27,-14,32,-83
0.003570,50,-23,-16,-39,-154,2
0.002421,-29,2,-41,-16,4,-33
0.002424,21,33,6,-58,-183,29
0.001328,-41,18,-6,-36,34,-27
0.002615,19,10,-1,-89,-173,111
0.003505,-39,5,9,-29,22,7
0.001362,46,-18,-33,-53,-45,30
0.003546,-26,8,-22,-44,-63,-35
0.001392,16,-6,39,-73,-186,66
0.001404,-79,32,14,-81,44,-23
0.004677,30,2,-44,-96,-83,66
0.001551,15,0,-30,-54,-3,36
0.001357,15,-24,-22,-126,-109,44
0.003537,-3,-34,-14,-30,-9,75
0.001387,1,-1,34,-36,-85,66
0.003553,0,-11,15,-45,-49,59
0.002510,-10,-12,23,-61,-20,51
0.001330,19,-21,21,-87,-66,46
0.002473,-31,30,19,-61,-76,33
0.003569,-1,25,-11,-83,52,-36
0.002480,34,-48,-50,-88,-168,21
0.001345,-23,-40,-37,-43,-95,63
0.002434,-10,-5,34,-59,19,-89
0.002579,-9,22,29,-55,-23,-25
0.002441,8,3,37,-71,-123,35
0.002462,-13,-42,-22,-55,-142,0
0.002437,13,49,30,-26,80,-54
0.001330,29,-18,-45,-39,8,-12
0.003673,-23,-6,17,-48,-216,47
0.002511,-56,-29,-28,-17,-147,-27
0.001338,-32,-34,6,-17,83,-154
0.002401,7,-3,1,0,-17,-78
0.002465,-42,-21,12,-11,-261,16
0.002620,-26,-28,5,25,-2,-91
0.002483,-13,-9,-7,-32,166,-184
0.002456,58,38,27,-16,-185,47
0.002432,-52,18,26,-18,-232,3
0.001337,-6,18,-17,42,176,-184
0.003548,15,-13,1,-26,32,-95
0.003542,-39,-9,2,55,-176,112
0.001322,-84,26,17,-6,94,-68
0.003520,9,-32,-12,6,59,-12
0.001312,6,-65,-37,7,-60,60
0.001337,-1,-10,-18,-48,-54,29
0.003542,-16,13,-5,-11,74,-112
0.001325,-15,7,-11,16,11,-16
0.003691,-31,-2,2,-7,-71,-23
0.002418,-28,36,58,16,27,11
0.001319,-19,17,7,-60,55,-29
0.002444,-15,-15,-19,-37,-95,50
0.003541,-5,-41,-6,0,-7,-21
0.001339,-30,0,-24,-10,164,-99
0.002410,8,28,18,-83,-39,47
0.002498,-50,-18,25,13,-175,163
0.003535,0,-38,4,-26,352,-189
0.001327,68,-3,-30,-42,102,-6
0.002450,-69,62,-17,2,-302,191
0.002436,-45,6,-26,-1,153,-136
0.001363,5,7,-9,-67,347,-183
0.004633,6,-7,-25,-13,-242,184
0.001314,-47,14,5,-13,62,-12
0.001339,-13,8,-26,-58,335,-134
0.002429,10,72,33,-5,-39,38
0.003540,-54,12,-45,-56,-48,54
0.001343,28,-25,-53,-61,158,-97
0.002420,-18,5,-39,-6,34,-26
0.002435,-5,36,57,-28,73,-4
0.003497,-6,9,0,-8,60,-30
0.001341,-4,-45,-36,-14,-106,37
0.002436,-7,-46,-7,-48,135,-91
0.003513,18,15,7,-17,83,-99
0.001333,-2,-55,34,-32,-149,23
0.002427,-16,72,-8,-39,95,-67
0.002426,11,6,-13,-28,164,-85
0.001343,-27,29,-17,-57,-157,66
0.004629,-64,32,-6,-42,95,-69
0.001327,56,40,-23,-42,99,-46
0.001334,28,26,-13,-9,-160,60
0.004651,-35,-3,-10,-54,142,-97
0.001359,29,-58,5,-52,115,-74
0.002447,-34,-11,1,-19,-255,107
0.002442,-56,21,-12,-64,118,-90
0.001347,46,15,-22,-47,134,-115
0.003594,-1,-35,1,-44,-113,61
0.003546,-38,-37,-33,-116,-3,-3
0.001343,10,-13,-21,-84,166,-84
0.001329,29,-28,0,-94,-131,73
0.003592,-52,25,-23,-108,6,13
0.002448,18,-87,-29,-70,106,-41
0.001336,-45,-20,3,-125,-83,38
0.002460,-33,-2,2,-95,75,2
0.003502,6,25,8,-104,137,-98
0.001347,21,7,-22,-152,-143,110
0.002430,-47,20,46,-152,70,12
0.002429,25,41,59,-88,154,-76
0.001362,8,-46,6,-179,-116,150
0.003575,-32,-28,9,-113,-31,67
0.002424,4,13,11,-78,188,-58
0.002445,77,-14,-32,-192,81,89
0.001359,-22,57,3,-97,-118,103
0.003534,0,-18,25,-110,68,26
0.002444,-1,-43,-6,-159,171,-39
0.001314,3,13,43,-86,-54,76
0.002444,-38,-26,-36,-89,-30,65
0.003529,5,57,26,-109,129,-44
0.001332,-27,38,33,-148,-59,16
0.003518,8,-37,12,-91,-62,88
0.001374,15,-38,-20,-85,66,-64
0.003729,30,6,16,-155,29,-105
0.001321,8,84,38,-62,-150,41
0.002498,-10,-61,-21,-82,103,-76
0.002480,36,-50,-40,-126,139,-197
0.001418,-14,70,4,-148,-208,52
0.003594,-17,-41,-24,-151,-73,-19
0.002439,40,-12,23,-95,272,-179
0.001350,32,4,33,-132,-32,-14
0.002421,3,-17,-2,-95,-247,93
0.003578,-39,42,41,-71,139,-120
0.001331,9,61,45,-111,223,-118
0.003545,51,-60,-21,-66,-182,108
0.001337,4,-21,7,-102,-121,100
0.001430,19,-23,-14,-107,113,-147
0.004623,35,32,-18,-44,45,-14
0.001345,6,-61,-43,-88,-14,32
0.002464,21,-52,-38,-139,-151,-56
0.002437,0,-24,9,-117,-119,-12
0.002433,26,-35,7,-80,153,-125
0.002427,11,4,-4,-72,16,-11
0.001339,-29,-15,-4,-90,-163,68
0.003517,-24,3,-10,-127,7,-24
0.002472,18,26,44,-95,192,-50
0.001346,20,12,-22,-134,-9,58
0.003555,12,-31,-49,-127,-168,78
0.002436,22,-54,-25,-93,94,-17
0.001341,1,-14,-13,-121,173,-77
0.003536,35,12,33,-102,-119,80
0.001334,-39,38,-4,-84,-138,94
0.002640,-8,37,35,-83,65,-68
0.003479,13,-26,-13,-114,182,-95
0.001270,-10,28,-7,-126,-153,90
0.002366,-32,-22,2,-129,-170,70
0.003468,-12,-36,-10,-110,226,-105
0.001310,59,-3,2,-123,43,-51
0.002371,-12,-30,-6,-115,-250,120
0.002343,-39,9,32,-110,31,-44
0.003433,38,6,-23,-96,146,-122
0.001247,3,-1,2,-111,-123,54
0.002339,-16,43,7,-96,-166,53
0.003439,-5,33,18,-113,66,-85
0.001242,8,51,54,-90,-20,-2
0.004517,-27,-32,13,-96,-99,29
0.001282,-19,-20,-42,-77,34,-32
0.001264,-4,51,10,-102,-57,-20
0.002387,-20,9,1,-71,-73,29
0.003423,15,4,-8,-30,48,-71
0.001257,-14,-27,7,-74,-93,14
0.002344,-21,2,12,-49,-217,63
0.003422,-51,22,3,-70,61,-88
0.002352,22,40,11,-83,123,-112
0.001295,5,9,-12,-80,-250,66
0.003435,-31,17,6,-49,-206,63
0.002350,-9,1,4,-82,166,-141
0.001266,12,-14,-12,-69,77,-80
0.004514,12,18,9,-96,-320,173
0.001263,-27,39,35,-77,-107,-4
0.001280,28,20,-1,-83,197,-196
0.003428,15,16,-3,-79,-116,6
0.002363,-37,24,-14,-95,-325,111
0.002382,-9,13,10,-86,110,-115
0.002351,-3,-20,31,-63,135,-89
0.003443,-12,5,28,-63,-234,112
0.002345,-7,12,10,-95,-208,39
0.001264,-35,-26,3,-98,158,-94
0.002345,24,-8,-24,-91,-67,33
0.003440,-15,-21,6,-80,-151,97
0.001257,-7,-30,17,-90,61,-41
0.003455,-5,-22,21,-107,-21,12
0.002353,-15,15,37,-54,-158,51
0.001258,-13,33,55,-96,70,-62
0.002343,18,-13,36,-69,14,-4
0.003467,-8,0,16,-81,-185,68
0.002384,-33,59,36,-70,-22,-5
0.001306,21,20,-15,-106,111,-69
0.003498,-12,-9,0,-118,-117,95
0.002431,-21,62,65,-65,-169,90
0.001302,-22,-97,7,-54,150,-112
0.002375,34,3,-6,-108,53,-32
0.003495,-32,-54,30,-45,-199,103
0.001286,-46,-23,43,-96,-18,4
0.003504,-4,27,38,-65,116,-45
0.002352,6,-9,15,-56,-3,12
0.001299,-6,-15,-2,-93,-166,105
0.002380,-18,-8,45,-75,13,-33
0.003458,11,1,4,-88,148,-70
0.002412,12,-36,-6,-51,-68,75
0.001299,31,-44,-29,-62,-125,53
0.002437,-32,-3,14,-74,101,-68
0.003474,-9,-10,17,-40,41,31
0.001287,-52,-23,8,-66,-73,50
0.002413,11,-70,-42,-84,14,-9
0.003504,-25,-14,0,-99,57,-27
0.001281,-6,-26,11,-71,-1,21
0.003445,4,-2,2,-97,29,0
0.001315,6,26,9,-85,17,20
0.002406,-43,9,20,-39,-20,71
0.002397,-37,23,-6,-35,82,-43
0.002380,-16,33,44,-63,45,-16
0.003528,-31,-5,42,-86,-6,28
0.001293,-23,-47,-4,-82,-26,34
0.002364,-7,-9,9,-93,52,-33
0.003508,0,37,49,-57,148,-33
0.001279,-6,-6,10,-81,-32,60
0.002378,-15,6,-4,-99,-75,-23
0.002393,-21,12,-4,-86,206,-123
0.003451,12,-5,2,-77,32,14
0.002403,-12,-34,6,-73,-184,60
0.002384,-43,-42,9,-46,217,-99
0.001298,27,22,-17,-82,206,-110
0.002384,-14,1,-11,-78,-208,93
0.002390,-24,-33,-19,-55,77,-38
0.003498,10,11,15,-104,286,-118
0.001291,4,-19,-13,-93,-149,79
0.002379,-24,-25,-9,-24,39,21
0.003464,0,-5,9,-37,165,-96
0.001298,32,40,16,-72,-24,39
0.002468,-36,6,0,-46,56,-5
0.002403,39,6,-1,-34,94,-28
0.002385,3,-6,5,-76,42,-4
0.003463,-12,0,-9,-40,14,9
0.001277,0,10,11,-66,38,-13
0.001361,-1,-59,-40,-59,52,-14
0.003479,14,-52,-13,-87,-1,8
0.002380,-24,8,-7,-66,-18,52
0.002393,11,-18,-12,-98,45,1
0.002397,7,12,-14,-111,47,-59
0.002386,13,-41,-25,-64,-10,22
0.002385,25,38,21,-67,-38,54
0.002393,-42,40,54,-50,145,-59
0.002406,36,18,2,-78,-13,71
0.002399,-23,44,22,-88,-148,123
0.001319,-24,-58,11,-100,118,-19
0.004569,20,-12,3,-79,105,6
0.001302,-14,1,-11,-77,-156,103
0.001309,-29,29,22,-83,-5,-19
0.003472,8,41,47,-83,127,-63
0.002396,17,11,-32,-88,-19,88
0.002401,36,-16,-49,-100,-84,85
0.002407,-13,-27,-23,-71,53,1
0.002384,5,-57,-25,-83,39,4
0.002377,-12,60,26,-55,-7,30
0.001312,-1,-13,-10,-92,-74,59
0.003468,-11,1,0,-103,58,-62
0.002358,59,-35,-1,-66,3,12
0.001386,-25,34,23,-98,-118,25
0.004601,-1,-24,3,-93,26,-29
0.001298,-19,1,-8,-71,46,-42
0.001291,-6,-39,-23,-81,-49,12
0.003500,-14,-14,-13,-72,-37,-4
0.002376,-14,-5,-7,-42,43,-73
0.002364,19,0,-27,-45,-38,-4
0.002388,-4,-17,-10,-42,-79,43
0.002409,-16,-15,4,-62,105,-104
0.002378,-11,46,13,-75,16,-57
0.001311,24,6,39,-39,-158,26
0.003466,-33,-8,-5,-55,9,-105
0.002385,-10,27,31,-56,71,-108
0.001308,10,3,-5,-73,-131,20
0.004588,10,-51,-20,-76,-45,-16
0.001270,-5,10,2,-62,90,-72
0.001277,5,42,42,-66,-21,-10
0.003476,-21,-20,1,-77,-67,-8
0.002406,38,-5,-9,-85,-11,-83
0.002376,-8,3,37,-102,11,-39
0.001356,35,-15,-4,-99,0,7
0.003485,-14,-22,-11,-130,-75,35
0.002384,60,-2,11,-110,-26,8
0.001302,-13,-15,12,-108,41,-44
0.003447,-1,8,0,-101,-66,6
0.002382,7,-63,-52,-102,-30,17
0.001276,45,-2,-41,-78,65,-8
0.004572,-24,3,10,-115,-56,6
0.001315,19,37,42,-102,-42,-21
0.001269,25,2,33,-93,-29,-9
0.003438,-14,33,29,-85,-82,-4
0.002369,-16,6,-24,-99,-43,9
0.002365,15,3,-38,-55,-3,-4
0.002437,24,14,-16,-83,-17,-11
0.002366,6,26,-13,-91,-108,21
0.002416,-13,11,40,-89,26,-44
0.001287,4,74,18,-82,39,-31
0.003492,29,31,0,-79,-118,107
0.002420,-35,29,32,-74,43,-44
0.001282,16,-9,39,-86,62,-35
0.004582,3,-13,32,-115,-113,58
0.001308,-56,-5,21,-112,-71,35
0.001308,15,-15,14,-57,140,-24
0.002367,7,7,1,-95,32,-22
0.003505,-48,30,2,-89,-136,36
0.002371,-18,37,9,-81,11,32
0.001316,-26,55,31,-66,218,-115
0.003494,47,-36,31,-104,-105,60
0.002439,-12,-20,8,-17,-180,107
0.001330,-28,32,16,-78,230,-136
0.002447,42,-16,-24,-99,121,-58
0.004609,-59,-17,-23,-68,-168,140
0.001311,15,-50,-3,-110,76,-72
0.003501,-4,-20,-35,-70,257,-121
0.001335,16,47,-14,-163,-57,92
0.001515,-48,15,15,-22,-167,122
0.002440,-11,-24,13,-82,292,-97
0.001314,43,-21,-1,-106,82,25
0.003507,-27,-26,14,-76,-238,191
0.002383,-21,25,3,-127,183,11
0.001293,28,16,-36,-26,254,-72
0.004600,21,-50,-26,-126,-198,171
0.001293,-12,-16,-14,-68,11,95
0.001300,17,-9,-17,-51,342,-150
0.004582,19,-8,29,-144,-96,108
0.001329,-5,-29,15,-16,-187,119
0.002402,-31,-4,-2,-90,353,-159
0.001282,64,50,13,-141,26,27
0.003480,-31,22,6,-85,-260,142
0.002398,-10,-28,1,-147,195,-106
0.001291,58,11,37,-54,236,-122
0.003509,31,-20,-5,-88,-297,148
0.002407,-10,-41,-19,-105,57,-15
0.001305,-22,51,12,-76,298,-186
0.004576,41,-49,15,-89,-80,43
0.001343,-32,-14,-16,-21,-207,87
0.001314,-15,21,11,-106,253,-163
0.003494,75,5,-1,-98,94,-80
0.002382,-41,25,3,-17,-164,59
0.002369,6,12,-7,-54,15,-54
0.001297,15,-22,-30,-50,103,-97
0.003453,4,0,25,-46,38,-34
0.002407,-20,-15,-24,-52,-110,18
0.001295,6,-5,-25,-63,-127,-35
0.002410,-45,23,-13,-45,183,-158
0.003521,-14,39,-8,-43,-85,-21
0.001281,11,-4,-29,2,-271,85
0.004580,-48,4,16,-54,169,-145
0.001294,27,-19,15,-52,31,-108
0.001296,-17,6,14,-55,-332,158
0.003515,-6,-52,-65,-57,-1,-55
0.002420,57,-5,-13,-79,176,-176
0.002379,59,26,8,-79,-307,162
0.002381,-66,3,16,-75,-169,66
0.002396,19,-69,-34,-90,286,-151
0.002369,49,-33,-40,-86,-188,132
0.001317,-47,-33,-33,-66,-360,173
0.004517,-51,48,8,-71,217,-98
0.001248,24,49,-20,-104,36,4
0.001282,11,-19,-56,-107,-437,225
0.003460,-29,-40,-43,-94,-34,34
0.002349,23,7,-6,-110,246,-151
0.001289,17,19,-15,-174,-284,170
0.002360,-81,31,26,-91,-336,190
0.003483,-23,-31,5,-112,253,-198
0.002353,63,-41,-50,-205,-7,14
0.001285,-40,-11,-19,-94,-430,237
0.003448,-83,21,17,-127,-15,-52
0.002351,26,46,5,-137,230,-191
0.001309,12,-21,-39,-116,-342,186
0.004546,-54,-70,-45,-111,-244,121
0.001276,-15,9,-32,-128,268,-174
0.001257,40,-9,-3,-100,-81,51
0.004534,-24,-9,21,-84,-371,155
0.001281,-53,-17,10,-107,131,-103
0.001251,7,-20,2,-68,116,-80
0.004534,-32,29,33,-75,-374,139
0.001269,-100,34,34,-52,-81,-85
0.002421,23,-29,38,-74,200,-198
0.002361,-10,14,16,-113,-280,77
0.002344,-24,-4,0,-15,-230,25
0.002380,-9,-34,-24,-115,185,-247
0.002382,20,46,-18,-128,-61,-80
0.003432,-43,-2,18,-46,-327,88
0.001257,-66,31,2,-91,86,-154
0.002349,-5,-6,-4,-72,144,-191
0.003460,-5,21,29,-119,-235,114
0.001262,-105,-6,27,-71,-114,6
0.002352,-36,-3,16,-99,249,-177
0.003439,11,-22,-21,-117,15,-23
0.001266,-40,48,57,-77,-279,134
0.002360,-52,45,20,-67,108,-74
0.003434,30,8,23,-71,284,-189
0.001281,44,-45,-33,-127,-188,130
0.003481,-68,-2,-1,-61,-167,111
0.002365,-24,-19,37,-65,335,-187
0.002344,43,2,19,-100,29,10
0.001305,-45,-21,21,-78,-290,207
0.002402,-51,20,41,-119,164,-149
0.003537,-15,12,10,-114,179,-114
0.001277,-5,17,26,-82,-172,131
0.002394,-67,54,23,-118,27,-9
0.003472,6,10,14,-118,268,-141
0.001266,25,29,3,-114,12,82
0.003506,-49,17,15,-100,-80,107
0.001291,-1,1,-5,-133,231,-104
0.002400,31,-3,-6,-123,180,-11
0.003490,-13,-4,15,-59,-106,137
0.001272,-42,51,30,-60,90,2
0.003465,5,88,48,-74,255,-47
0.002390,29,-2,22,-71,-12,104
0.001320,-30,-15,20,-92,-80,93
0.002404,0,-2,25,-90,263,-126
0.003477,-16,94,65,-87,157,-15
0.001307,10,7,-9,-48,-75,156
0.002401,-43,-13,-15,-34,101,-35
0.003470,22,29,28,-49,303,-89
0.002420,-15,15,43,-64,-84,136
0.001285,-15,-3,19,-46,-30,47
0.002410,-58,27,12,-58,316,-146
0.003475,58,-18,-45,-9,112,43
0.001287,4,-8,-5,-51,-131,129
0.003483,-63,-23,29,-52,181,-94
0.002384,50,48,41,-15,222,-106
0.001318,5,-25,-11,-44,-116,178
0.002396,-16,-29,-2,-52,55,23
0.002423,17,-24,-11,-59,261,-57
0.002386,5,60,62,-32,-30,96
0.002388,-27,13,11,-48,-86,104
0.002391,-17,23,36,-44,284,-130
0.003456,67,-14,7,-68,125,0
0.001313,-35,-44,-18,-40,-195,154
0.002414,-16,-73,-27,-86,185,-71
0.002391,53,-58,-6,-139,197,-18
0.002383,12,21,43,-38,-196,167
0.002375,-51,40,10,-62,118,-9
0.002383,58,-51,-21,-84,251,-43
0.003537,31,5,-12,-81,-108,118
0.001297,-48,-3,-6,-96,-18,108
0.002379,8,23,18,-89,137,-14
0.001287,41,15,61,-75,15,32
0.003522,-3,18,25,-98,-12,13
0.002383,40,-16,-6,-41,-86,54
0.002393,6,-14,-48,-43,42,-36
0.002431,22,-42,-69,-89,86,-57
0.002388,19,30,-29,7,-201,67
0.002406,-49,-23,-7,-78,79,-33
0.001301,46,-11,-43,-83,160,-62
0.004598,15,-22,1,-27,-191,121
0.001276,-11,30,32,-26,2,-2
0.001289,-17,24,15,-58,98,-76
0.004589,18,-59,-14,-30,-122,84
0.001304,5,-41,-35,-61,-61,-10
0.001305,-19,-16,32,-67,-39,-73
0.003540,21,-3,10,-42,-68,-39
0.002419,11,-6,-52,-79,-221,70
0.002387,15,9,-15,-74,46,-145
0.002384,47,-41,10,-81,27,-85
0.001317,-16,4,25,-78,-207,94
0.003485,-30,-27,10,-78,-48,-31
0.002380,-3,5,30,-54,51,-80
0.002397,15,-21,-27,-68,-113,32
0.002398,-3,-25,-53,-74,-176,22
0.002389,-16,21,-23,-90,52,-74
0.002384,50,47,30,-120,-17,-39
0.001303,9,9,-20,-101,-146,68
0.003470,17,14,-9,-106,-95,32
0.002372,-7,6,10,-110,64,-109
0.001336,56,-51,10,-118,-105,59
0.003475,-18,27,-7,-88,-156,83
0.002395,37,14,-19,-110,0,-64
0.001263,5,34,24,-73,-6,-7
0.002456,-8,-27,-12,-84,-220,114
0.003516,-19,16,38,-90,39,-71
0.002375,14,11,0,-74,-27,-50
0.001277,11,28,13,-70,-102,5
0.003459,-9,8,14,-93,-83,-24
0.002366,-7,24,36,-79,43,-71
0.001311,14,-3,18,-74,-51,15
0.002410,4,20,-4,-72,-53,16
0.003490,18,24,19,-111,-19,-10
0.002376,-11,19,5,-98,17,-32
0.003479,52,28,18,-96,-123,24
0.001291,-50,26,12,-65,-59,-8
0.001274,49,3,1,-94,24,-42
0.003460,-2,-7,3,-73,-96,11
0.002354,7,4,-7,-97,-77,27
0.002360,-5,44,9,-65,-9,-56
0.002360,12,34,13,-88,-19,6
0.002373,9,-10,-29,-90,-85,17
0.002374,18,51,9,-91,-58,2
0.002392,7,-5,3,-84,10,-28
0.001295,-34,-5,6,-99,-16,25
0.003465,15,-9,18,-104,-86,7
0.002352,6,7,-3,-69,-48,24
0.003458,21,14,16,-96,81,-52
0.001290,6,-14,-13,-121,-76,76
0.002408,-15,24,-22,-63,-113,60
0.002382,10,-4,-6,-50,101,-38
0.002373,24,-54,-7,-91,-51,32
0.003459,-9,22,-5,-94,-62,54
0.001271,-5,42,41,-98,55,-6
0.001287,-2,-4,-6,-72,-32,3
0.003459,23,60,25,-81,-28,4
0.002383,1,13,18,-74,-34,25
0.001312,-22,12,30,-104,64,-34
0.003488,35,-31,-5,-66,10,-13
0.002383,-26,22,21,-54,-27,24
0.002378,12,-4,-19,-90,79,-54
0.002373,-21,-2,-7,-76,-12,21
0.002360,-17,43,-1,-63,3,30
0.002366,23,32,13,-94,73,-22
0.001301,-9,-12,-27,-74,-50,8
0.003463,-10,65,43,-64,24,13
0.002407,-50,-3,-34,-69,13,-8
0.001327,11,-67,-29,-52,17,-12
0.004570,-13,-15,-7,-42,12,-17
0.001266,7,-4,-11,-83,23,8
0.001258,4,2,-46,-36,29,6
0.004561,-10,46,-8,-91,34,-17
0.001270,32,5,12,-72,-33,-5
0.002369,-33,-9,6,-54,16,-21
0.003485,18,-21,-2,-88,61,-24
0.001266,-18,0,14,-72,20,8
0.002373,-5,-50,-30,-41,-8,51
0.002411,-18,-19,-13,-78,20,-44
0.003450,15,3,-9,-66,-1,8
0.002375,-24,13,5,-89,24,-55
0.000174,-26,72,29,-88,23,0
0.004566,-5,-46,-21,-94,14,14
0.001299,-10,-5,-49,-104,47,-17
0.001278,-10,-8,-10,-83,3,23
0.004575,-10,-24,-27,-68,20,35
0.001292,-27,15,-10,-116,11,13
0.002413,-57,45,2,-102,55,-35
0.002370,-21,13,-16,-85,10,7
0.002388,-22,-21,-10,-84,-32,32
0.002387,22,-37,-17,-101,55,-29
0.002371,31,-27,21,-99,1,5
0.003461,20,3,9,-49,0,28
0.001282,8,25,-5,-97,58,-30
0.002351,6,8,16,-92,26,11
0.003477,20,7,44,-114,-12,36
0.001273,-5,-5,1,-95,48,-29
0.002397,7,42,41,-106,28,-15
0.002393,-26,33,8,-103,-30,13
0.002421,45,-5,9,-54,68,-20
0.002386,0,-12,-6,-78,64,-24
0.002416,33,-40,-3,-73,-60,58
0.001297,-50,38,38,-40,29,-5
0.003460,52,9,-18,-82,83,-31
0.002377,-13,-13,3,-39,-56,33
0.002396,-21,19,21,-66,1,28
0.002373,6,38,-14,-103,74,-90
0.002384,12,-17,22,-33,3,14
0.002375,-21,69,24,-69,-75,3
0.002393,-26,10,-15,-68,176,-52
0.002387,49,-54,-71,-96,61,-20
0.002386,-19,4,-27,-82,-141,91
0.001272,13,11,1,-46,-87,33
0.004573,-12,38,-3,-47,215,-153
0.001270,31,25,-7,-51,45,-8
0.001334,30,-26,-46,-86,-31,90
0.004577,-39,-10,-29,-118,6,-38
0.001284,-10,13,15,-56,-40,40
0.002376,-7,-40,-5,-67,-23,35
0.003477,17,-3,27,-78,68,-33
0.001330,-32,40,41,-107,-26,35
0.002388,-46,8,-16,-80,-82,7
0.002397,-24,-5,-18,-97,-63,45
0.003518,-29,-43,24,-61,124,-36
0.001297,-18,28,26,-117,-11,18
0.002385,-6,-4,-18,-92,-85,80
0.003531,5,-17,-52,-136,8,-43
0.001282,30,22,-43,-63,23,-8
0.001274,20,-5,-6,-56,34,22
0.004601,-38,-52,-27,-124,-56,9
0.001317,-13,-22,-31,-97,-60,56
0.002385,-51,20,46,-56,57,-18
0.002391,4,10,-12,-64,-23,37
0.002375,-7,28,19,-55,49,48
0.002388,-37,64,52,-66,-52,-37
0.002381,-1,-49,24,-79,-91,42
0.003513,-37,-24,-31,-67,86,-57
0.001276,42,20,6,-75,41,-94
0.002423,50,15,25,-77,-105,106
0.002460,-22,-7,57,-76,-61,14
0.002380,7,-12,8,-55,173,-78
0.002384,32,-35,-2,-102,55,24
0.002380,14,-43,8,-90,-248,74
0.001366,-35,-22,-14,-101,2,-29
0.004575,10,-2,16,-45,196,-116
0.001315,11,-27,52,-105,-72,19
0.001316,-14,-45,-31,-41,-200,126
0.003488,-17,-20,-5,-78,47,-117
0.002405,53,-46,-10,-52,204,-110
0.002393,-24,-8,0,-131,-183,74
0.002397,-28,-7,11,-113,-159,8
0.002398,-38,47,14,-97,225,-121
0.002378,18,-38,-6,-132,-54,0
0.001369,-21,-27,44,-70,-214,93
0.003495,-38,21,43,-49,191,-66
0.002402,48,3,12,-113,141,-79
0.001304,31,-11,-4,-59,-275,146
0.004619,-77,-21,-10,-111,-12,9
0.001290,3,21,-6,-99,253,-139
0.001296,13,6,-2,-102,-154,124
0.002473,-44,16,-25,-103,-113,41
0.003491,18,14,9,-72,147,-72
0.002395,30,37,-8,-109,-161,17
0.001320,-12,2,9,-49,-71,46
0.003529,15,-13,-14,-81,175,-141
0.002386,16,23,10,-107,-98,11
0.001303,-37,-2,16,-127,-171,67
0.002400,-29,-1,13,-90,130,-52
0.003512,48,-18,4,-139,48,-38
0.002374,9,17,-24,-90,-97,61
0.001335,29,-6,-16,-72,-46,82
0.003487,9,-13,-8,-150,89,-94
0.001282,1,19,15,-108,38,-68
0.002404,16,-7,31,-72,-232,123
0.003461,-22,1,4,-120,44,-35
0.002435,13,10,-13,-127,217,-108
0.001306,11,19,3,-100,-51,133
0.001303,-36,26,15,-121,-123,77
0.004588,4,-29,-5,-137,69,-8
0.001278,24,17,6,-123,83,-18
0.001290,-7,64,23,-100,-40,122
0.004655,-9,10,14,-119,-96,36
0.001295,-8,-42,-47,-91,88,-56
0.002387,20,-4,-13,-132,-48,5
0.003470,-8,63,14,-46,40,-21
0.001341,12,-31,-14,-151,-35,31
0.002394,-11,19,-20,-82,-62,-15
0.002399,7,-2,37,-146,-23,69
0.003496,-22,-13,-5,-93,-38,15
0.001286,-15,35,17,-92,24,-27
0.001299,9,26,13,-100,-31,24
0.004518,2,17,0,-53,21,-10
0.001294,5,-19,-20,-132,-20,-3
0.001271,-31,39,1,-85,-26,1
0.004552,7,4,11,-73,-157,103
0.001297,-14,-7,-2,-110,-58,-44
0.002369,9,-6,-9,-23,55,-92
0.003483,33,19,15,-111,-129,84
0.001280,-12,27,-9,-35,19,-5
0.002388,-13,64,47,-98,-18,-20
0.002392,20,-3,-33,-101,-80,-2
0.003490,-16,32,-10,-27,-164,66
0.001301,-12,-22,-16,-114,9,-62
0.002373,7,49,-11,-27,95,-85
0.003511,-9,12,-49,-69,-195,68
0.001304,-35,-36,-91,-85,-3,-78
0.002390,28,10,-21,-38,-11,-45
0.003484,-36,-20,-18,-72,-119,1
0.001305,-20,32,11,-40,-40,22
0.003510,-26,-11,-15,-76,-61,-30
0.001302,13,-46,-37,-37,-12,-21
0.002370,-53,-1,5,-18,-46,-9
0.002378,-22,-22,0,-65,35,-44
0.004577,-19,55,23,-19,-51,41
0.001278,-39,-7,30,-77,-98,8
0.001298,-16,-16,-45,-61,73,-59
0.002367,-24,17,7,-74,-82,17
0.003473,-34,21,-31,-46,-23,17
0.001297,4,46,-12,-38,-46,21
0.002388,-44,-17,-11,-95,28,-35
0.002389,-24,-33,22,-45,36,3
0.002388,-25,-13,22,-13,-87,58
0.003480,-32,1,31,-96,14,18
0.001286,-19,22,41,-56,36,-43
0.002368,-5,26,31,-44,-76,67
0.002376,-33,-43,14,-63,7,11
0.002385,-21,-2,41,-82,118,-29
0.002359,5,-11,11,-70,3,59
0.002380,-18,7,59,-51,-6,56
0.002381,-12,-30,-25,-94,-3,2
0.003452,-3,19,-2,-7,57,11
0.001265,9,-18,4,-36,16,14
0.002393,3,14,18,-23,-1,42
0.002373,-37,14,29,-58,98,-3
0.002373,4,-19,-30,-30,39,40
0.003464,-42,21,12,-36,-2,21
0.001275,-33,-42,-9,-53,56,2
0.002376,2,-12,11,-42,3,-8
0.002452,-23,-11,35,-48,-1,67
0.002371,-23,30,21,-51,58,11
0.003512,-3,-14,2,-45,51,1
0.001278,-51,74,48,-34,11,43
0.002371,-19,12,-1,-67,-1,45
0.003488,1,-27,8,-61,37,-37
0.001274,21,-20,18,-43,45,4
0.002375,-17,-39,17,-53,-9,35
0.002412,-35,-2,8,-57,27,-15
0.002349,-41,2,3,-47,90,-6
0.003454,-9,21,6,-54,45,14
0.001311,-29,-28,-16,-57,12,11
0.002357,-19,4,9,-73,20,12
0.002353,-4,-21,5,-20,91,2
0.002362,30,-10,1,-86,29,31
0.003458,-8,-61,5,-85,38,-12
0.001294,3,-48,-8,-34,34,-35
0.002380,-32,-8,-20,-51,69,-26
0.003466,-29,6,26,-78,6,36
0.001279,-3,36,41,-51,48,-24
0.002359,24,6,12,-51,54,-4
0.003445,7,-44,-2,-69,7,6
0.002373,-12,11,8,-62,40,-13
0.003461,18,42,27,-59,74,-6
0.001280,32,-23,1,-77,49,-21
0.001286,-18,40,23,-35,34,-44
0.002398,21,-64,-6,-97,14,2
0.003453,2,5,34,-73,79,-34
0.002361,-3,60,57,-70,49,2
0.001348,10,-30,-33,-71,19,-2
0.002544,-16,16,5,-46,23,7
0.003487,-39,56,-16,-45,121,-57
0.001277,17,-22,-21,-53,1,44
0.002366,-35,4,9,-71,46,7
0.003475,13,-16,7,-101,-7,-32
0.001272,9,41,28,-46,-18,-9
0.003514,31,30,-33,-40,72,-65
0.002373,9,47,-20,-96,51,-50
0.001274,21,5,4,-67,-112,35
0.002388,10,-67,-29,-90,92,-37
0.003482,-19,27,26,-118,64,-81
0.002401,1,69,36,-64,-96,71
0.001300,-33,-58,-7,-147,-39,-1
0.002407,-22,-41,-34,-97,167,-146
0.003469,-1,-6,24,-165,-31,55
0.001315,-35,47,-1,-104,-125,22
0.002434,10,-28,-21,-94,171,-111
0.003477,18,-20,-22,-181,40,40
0.001298,7,-41,-28,-64,-175,137
0.003491,-56,41,10,-135,187,-90
0.001381,69,7,-8,-163,39,5
0.002447,-9,-6,-11,-115,-157,95
0.002421,-14,-10,-27,-166,90,-29
0.002367,20,3,0,-116,58,32
0.003504,14,50,-9,-186,-97,54
0.001295,3,-11,-25,-119,43,-46
0.002377,55,-27,11,-148,3,14
0.002445,-34,18,-5,-149,-34,6
0.002358,7,12,4,-123,55,-7
0.002422,19,-6,11,-117,-28,74
0.002394,1,-50,-11,-169,-61,26
0.001335,-42,9,4,-119,70,-59
0.004596,42,11,41,-115,-105,42
0.001305,-29,-31,-14,-90,-1,-26
0.001309,25,38,-10,-140,76,-25
0.003474,-7,8,23,-121,-82,31
0.003473,10,0,47,-98,-42,49
0.001302,27,-4,-6,-106,35,-36
0.002416,31,-10,-43,-155,-59,-29
0.002405,-13,34,3,-111,-137,26
0.002386,-30,34,18,-85,79,-50
0.001415,13,-17,-19,-109,-11,-29
0.003539,-12,20,-17,-105,-97,15
0.002397,-15,-1,-23,-116,-83,6
0.001299,-44,35,-41,-91,39,-78
0.004583,22,41,7,-106,-56,-6
0.001288,-6,-22,7,-127,-72,-9
0.001328,-32,-16,-11,-89,-60,-16
0.002419,13,20,15,-70,7,-31
0.003501,10,-18,13,-124,-99,38
0.002372,6,3,-9,-115,-93,10
0.001289,3,45,14,-112,-20,-51
0.003485,4,24,-15,-120,-56,-11
0.002369,5,21,4,-84,-171,38
0.001329,-46,-7,18,-110,12,-22
0.002472,56,-26,29,-100,-39,16
0.003528,-16,-2,30,-110,-187,72
0.001294,1,-17,-15,-133,-1,-41
0.002442,29,-12,-8,-122,-20,-52
0.003501,-10,-1,28,-85,-198,90
0.001302,-16,-3,28,-137,-44,9
0.002378,11,36,-7,-138,31,-37
0.002396,22,-1,-46,-82,-122,46
0.003532,-14,3,15,-108,-114,42
0.001276,-8,5,3,-124,94,-91
0.002392,52,42,19,-136,-113,52
0.003535,-7,25,31,-111,-132,42
0.001297,8,-3,21,-100,125,-107
0.002443,37,-21,-12,-102,-121,81
0.002400,-16,14,2,-106,-171,42
0.002413,-6,44,4,-84,180,-93
0.002408,68,-10,-20,-84,-106,46
0.002388,-52,-8,10,-79,-164,53
0.001286,-1,17,37,-81,178,-133
0.003469,3,17,-3,-66,-43,8
0.002414,-3,-62,-21,-64,-213,34
0.002402,-45,-14,23,-30,184,-124
0.001354,21,20,-1,-105,-16,8
0.003486,-28,-7,11,-63,-226,70
0.002414,-35,-5,25,-46,120,-150
0.001282,19,17,17,-68,57,-40
0.003511,-4,-16,-8,-81,-250,91
0.002404,-4,-57,-33,-27,122,-90
0.001296,21,6,-12,-99,31,-43
0.004562,-8,-8,9,-69,-172,45
0.001295,-46,-9,14,-71,114,-89
0.001274,23,10,59,-79,20,10
0.003493,4,-11,25,-75,-160,78
0.002441,-36,-38,12,-55,152,-101
0.002387,25,-45,-6,-72,-12,-3
0.002385,-24,4,-6,-77,-155,62
0.001315,-16,9,-4,-59,155,-100
0.003490,51,-1,-3,-46,28,12
0.002415,-1,-47,10,-69,-154,98
0.001322,-15,11,-6,-22,190,-118
0.003478,32,75,3,-83,-25,15
0.002418,-38,7,57,-82,-132,34
0.002391,17,-4,31,-50,197,-143
0.001270,9,0,-1,-42,-32,8
0.003491,-10,26,-9,-51,-88,15
0.002398,-30,49,10,-41,221,-150
0.001274,44,5,-24,-40,-42,9
0.004637,-39,28,33,-67,-127,78
0.001347,-25,-4,11,-24,196,-162
0.001275,30,18,-4,-67,20,-3
0.002385,-63,46,21,-84,-77,55
0.003485,-7,10,1,-48,199,-80
0.001285,31,16,-4,-53,-8,19
0.002399,5,33,-15,-30,-37,-29
0.002483,-15,-25,-6,-18,216,-87
0.003489,52,9,10,-18,-26,21
0.001287,-1,56,-15,-52,40,-27
0.002369,15,7,9,-26,131,-79
0.003546,33,-49,-28,-40,-40,70
0.001308,-43,-24,-40,-71,16,-4
0.003486,-2,10,-15,-57,142,-33
0.001293,15,-21,3,-63,-95,77
0.002423,-60,-60,-41,-75,38,11
0.003558,5,-16,-4,-83,171,-56
0.001289,38,-42,15,-60,-89,79
0.001287,-19,5,-42,-87,-66,16
0.004562,41,14,3,-77,188,-94
0.001296,46,40,11,-60,-92,64
0.002392,-37,17,-24,-48,-53,51
0.004618,34,-16,-30,-82,204,-78
0.000177,7,68,26,-60,-47,55
0.002383,-4,-20,17,-38,-76,65
0.002407,-16,-53,-38,-78,152,-51
0.003513,28,29,17,-74,-35,35
0.001294,-1,-8,-21,-103,-83,77
0.002383,17,-4,-18,-56,60,-26
0.003470,1,9,5,-90,-7,-3
0.001303,-40,20,23,-71,-73,98
0.002367,13,6,32,-74,-2,-24
0.002403,21,-49,-14,-81,13,-36
0.002380,-4,5,-11,-87,-34,0
0.003519,-16,-15,-3,-57,-24,5
0.001283,-16,-37,21,-81,-8,0
0.001300,-9,4,25,-89,12,-28
0.004573,-15,-47,40,-83,11,-12
0.001296,-11,-42,12,-97,-78,53
0.002398,-25,-15,-27,-53,36,-50
0.003486,22,-2,21,-51,71,-46
0.001296,-7,-20,22,-83,-140,43
0.002405,-11,-24,-16,-54,-22,-12
0.003466,29,2,-8,-67,83,-86
0.001309,17,12,-7,-28,-106,41
0.002438,-12,-42,-30,-37,-37,-16
0.002387,21,24,-8,-73,108,-71
0.003469,12,-60,9,-26,-86,45
0.001292,-17,-9,21,-60,-20,-12
0.002375,15,-27,5,-58,18,-37
0.003499,7,-16,11,-32,6,-45
0.001284,-46,28,13,-65,-86,1
0.003487,0,-63,40,-92,8,-58
0.001282,-2,-17,17,-87,0,-39
0.002385,-4,-21,-40,-62,-13,3
0.002390,31,-18,2,-80,-4,-29
0.002372,35,-38,3,-69,-44,11
0.001352,-24,8,7,-94,0,-33
0.003493,11,-15,-8,-75,20,-38
0.002366,6,3,-29,-59,-65,39
0.002418,-25,-19,-52,-87,23,-59
0.002388,36,42,31,-57,-26,27
0.002388,-10,-15,-10,-85,-1,24
0.002415,-13,-45,-43,-82,17,-67
0.001289,16,33,74,-88,-41,2
0.003623,-46,42,2,-103,-21,24
0.002389,42,84,-22,-61,34,-58
0.002381,9,21,-17,-94,51,-36
0.002418,-22,19,10,-122,-161,31
0.002412,-11,11,-10,-89,-118,67
0.001302,-35,35,-10,-52,178,-95
0.002391,-2,20,17,-96,-97,45
0.003495,-33,13,11,-78,-155,65
0.002379,9,15,38,-108,56,-59
0.001267,14,-6,3,-64,70,-2
0.003517,14,-11,-14,-125,-137,128
0.002411,-15,33,32,-94,-110,-29
0.001291,12,17,9,-102,147,-38
0.003573,38,-37,-28,-130,-39,-28
0.002402,-33,42,50,-105,-179,110
0.001287,-28,35,29,-105,41,-4
0.003465,40,-73,7,-72,71,1
0.001361,-25,-88,10,-95,-99,53
0.002380,-39,-20,-1,-42,-61,4
0.003479,5,22,10,-128,93,-78
0.001298,-3,38,35,-115,-86,74
0.003491,-54,-7,11,-74,-120,64
0.002419,9,-45,-33,-119,59,-18
0.001275,2,7,30,-79,-39,9
0.002376,-36,4,7,-103,-91,31
0.003467,-2,-29,4,-49,33,-29
0.002353,1,22,-2,-104,3,7
0.001337,-24,18,-17,-130,-95,43
0.003468,-49,-3,19,-90,40,30
0.002373,11,-9,5,-132,41,-54
0.001293,-28,9,17,-117,-53,-11
0.003476,36,-5,-24,-70,-18,37
0.002444,-20,18,-14,-115,72,-31
0.001409,12,25,16,-86,-23,2
0.002389,7,19,-8,-77,-29,11
0.003477,9,100,50,-57,-50,-13
0.001291,5,25,46,-65,96,-75
0.002429,-25,-44,32,-120,52,4
0.002458,35,-23,13,-85,-110,63
0.003464,-39,2,19,-78,3,-50
0.001333,-2,1,65,-121,140,-115
0.002373,15,-21,5,-103,-98,66
0.003471,-24,18,9,-71,-44,18
0.001322,22,-35,-18,-97,145,-120
0.002374,-11,7,10,-71,22,-39
0.002401,0,-34,48,-45,-126,38
0.003496,-32,-16,31,-122,88,-104
0.001339,55,-17,-23,-107,122,-64
0.002395,-12,37,-31,-116,-84,56
0.002408,-19,14,-13,-72,18,-61
0.002378,10,3,8,-131,145,-65
0.002394,-33,69,27,-124,-7,13
0.002395,-8,13,-23,-103,-55,8
0.002383,-8,-1,-23,-80,100,-43
0.002376,3,-5,-11,-93,117,-42
0.002370,-5,18,41,-81,-22,34
0.002361,-21,76,33,-60,-9,1
0.002445,-17,10,9,-110,80,-106
0.002397,60,-49,-23,-78,-36,-32
0.001266,-10,24,5,-88,0,-2
0.004616,13,34,29,-115,109,-81
0.001288,3,-13,-16,-99,42,-16
0.001288,1,31,18,-103,-107,89
0.004563,-10,48,39,-88,40,-38
0.001294,-5,-2,-24,-62,148,-71
0.002376,-2,-90,-2,-90,-89,77
0.003476,-33,-89,-38,-79,-3,31
0.001336,19,-7,11,-62,195,-97
0.002374,34,-9,-13,-84,-99,72
0.002379,-60,35,16,-76,-45,28
0.002374,45,18,4,-67,156,-70
0.002392,47,-17,-15,-65,-49,41
0.002383,-64,28,9,-48,-88,110
0.003484,-3,24,-18,-57,123,-40
0.001295,17,23,-17,-90,-41,-14
0.002386,23,-8,-15,-57,-144,100
0.002412,-27,-16,-5,-58,125,-66
0.002369,67,8,-14,-66,20,17
0.003492,-13,114,4,-82,-127,116
0.001272,-47,29,9,-87,67,22
0.002383,15,-42,-12,-91,-19,0
0.002378,-54,26,24,-75,-1,-14
0.002379,75,-29,13,-74,-119,57
0.002383,-28,38,-26,-39,0,-37
0.002402,15,24,-32,-63,-33,14
0.002380,31,10,-21,-94,56,-50
0.002468,-18,11,9,-67,-117,101
0.002379,-31,39,-5,-96,16,-60
0.002371,5,68,49,-81,-48,-24
0.002392,-23,-3,-31,-69,-40,-36
0.003544,-5,-37,-24,-49,-102,44
0.002397,-30,-61,-8,-101,34,-71
0.001280,51,-40,6,-67,-74,66
0.002388,-68,38,-4,-50,-108,12
0.002380,22,-2,-21,-38,33,-27
0.002387,12,-33,4,-54,133,-106
0.001287,19,36,5,-91,-240,118
0.003473,-54,28,25,-50,10,-31
0.002392,34,-12,7,-51,127,-52
0.002387,24,-54,-2,-95,-158,36
0.002380,14,-23,6,-66,-101,93
0.002397,-15,26,35,-55,156,-158
0.002367,2,-15,0,-77,-76,31
0.001333,-68,-3,-2,-64,-164,43
0.003477,5,-30,9,-60,141,-100
0.002399,24,-13,13,-74,0,-24
0.001330,-9,13,8,-59,-146,84
0.004594,-28,-27,-78,-55,85,-88
0.001320,10,-21,8,-72,-31,-42
0.001302,-21,14,-5,-28,-33,48
0.003475,12,-35,20,-76,25,-39
0.002367,-2,-3,7,-83,-60,22
0.002373,1,28,-15,-67,52,-15
0.002380,57,-9,-18,-49,21,-17
0.002388,-16,28,55,-45,-214,80
0.002400,-54,112,64,-36,190,-115
0.002387,68,-48,-49,-26,-12,-6
0.003489,4,-68,-52,-88,-236,140
0.001308,11,-53,-16,-43,227,-157
0.001309,57,-63,-48,-71,-23,97
0.003513,-10,-30,1,-93,-142,79
0.002387,-7,9,-4,-52,125,-53
0.002391,-28,50,23,-71,-13,-17
0.002381,-23,17,45,-78,-65,73
0.002395,-30,-43,-30,-131,4,-10
0.002388,-11,21,11,-90,107,-31
0.002355,0,3,19,-70,-103,91
0.001322,-27,42,23,-78,-1,-26
0.003485,11,41,30,-78,62,-22
0.002373,-15,46,-7,-67,-16,38
0.002383,-4,0,-15,-71,-13,2
0.002426,54,-34,-29,-83,42,15
0.002412,-3,-41,-55,-67,-134,54
0.002408,-23,-59,-22,-63,126,-100
0.002429,53,18,1,-88,-68,48
0.003480,-50,40,11,-84,44,-24
0.001285,6,20,6,-92,47,-29
0.001299,29,-13,-53,-47,47,-21
0.003496,-1,-12,-26,-89,-125,76
0.002478,-18,20,-13,-17,195,-95
0.001304,15,17,38,-80,-97,20
0.002452,-56,-73,-4,-50,-24,22
0.003490,48,-55,-6,-65,30,-63
0.002377,-25,51,8,-66,32,-26
0.001281,31,31,15,-80,-59,-6
0.003485,-28,3,-1,-75,104,-63
0.002403,19,-26,14,-78,-19,-17
0.001292,16,35,2,-64,-34,-1
0.004581,-37,4,-2,-73,17,-41
0.001280,16,11,6,-80,55,-36
0.001295,5,40,26,-65,-45,10
0.002376,-21,-2,35,-61,48,-31
0.003502,11,-12,-9,-86,-19,-14
0.001291,-21,21,31,-83,-26,-5
0.002369,8,52,5,-92,-36,-31
0.003471,-15,7,2,-94,-36,-13
0.002378,-11,4,40,-86,28,-38
0.001290,-15,-10,7,-92,-26,34
0.003474,-21,15,4,-97,-71,37
0.002414,-35,3,-28,-101,46,2
0.001279,5,11,-14,-88,-36,25
0.004560,-49,22,4,-131,-12,1
0.001292,-38,26,19,-85,-28,17
0.001282,-3,4,-5,-112,-18,20
0.002385,4,-12,15,-105,-19,80
0.003482,4,-42,19,-123,-88,59
0.001305,-13,21,-15,-132,87,-46
0.002371,40,7,-3,-89,-58,65
0.003467,-23,8,29,-101,-50,77
0.002408,-20,-15,-27,-132,45,-17
0.001329,31,33,12,-85,-77,65
0.003487,-13,-25,-8,-120,-19,82
0.002376,-2,-32,47,-131,79,10
0.001291,-27,-4,-16,-98,-23,53
0.004570,-23,-15,-9,-117,-54,77
0.001295,22,-31,1,-122,7,16
0.001293,-15,-4,-25,-126,10,23
0.002359,-8,53,4,-97,-3,11
0.003479,-34,79,43,-133,-87,53
0.002380,24,6,-21,-120,69,-73
0.001307,26,-59,-50,-123,-57,-16
0.003472,-28,-17,-8,-90,-71,4
0.002393,-1,-56,-36,-117,70,-49
0.001294,7,-13,26,-100,-14,-26
0.003473,-19,-9,33,-102,-39,2
0.002393,-1,-20,-38,-109,21,-63
0.001300,-37,-1,-5,-102,-66,-12
0.003505,-21,8,10,-87,27,-75
0.002326,23,16,26,-97,22,4
0.001282,-29,31,27,-122,-38,10
0.002361,-36,-40,-1,-106,16,-42
0.003440,24,-45,-20,-81,-2,-76
0.001251,8,4,14,-107,-80,-33
0.002350,34,-55,-68,-96,40,-59
0.003468,-5,-4,-34,-64,-7,-46
0.002351,-26,67,11,-97,-59,-22
0.001244,4,-5,14,-75,15,-68
0.003438,-12,0,-13,-102,55,-25
0.002351,15,-20,-10,-78,-53,10
0.001256,-32,62,69,-93,-47,-7
0.004514,27,-5,15,-86,36,-12
0.001275,-39,-21,37,-106,-33,-20
0.001262,10,-18,11,-100,-31,-1
0.003451,-18,-50,-13,-103,-1,-22
0.002338,23,-36,13,-85,16,4
0.001251,-8,17,7,-107,-34,36
0.003415,0,-22,2,-127,30,2
0.002327,1,-7,24,-86,-4,32
0.003429,20,18,20,-93,-29,34
0.001256,-28,-14,32,-95,34,45
0.002369,-33,11,25,-119,25,48
0.003429,-16,3,43,-83,-7,32
0.001272,-18,34,44,-104,21,-6
0.003448,-1,8,32,-80,24,16
0.002352,-38,-6,-10,-115,-2,23
0.001239,10,-1,7,-105,64,8
0.002351,11,-9,-38,-123,-26,74
0.003427,-67,24,21,-94,34,35
0.001238,10,49,26,-97,6,31
0.002340,-19,-30,15,-82,41,5
0.003414,26,4,15,-70,12,-1
0.002327,1,29,-3,-87,28,13
0.001239,-3,-4,16,-97,0,15
0.003429,15,-26,6,-73,61,-11
0.003416,16,2,-19,-59,4,13
0.002346,1,-21,-24,-73,18,6
0.002341,0,-22,10,-76,42,-50
0.001245,-4,-13,-2,-68,6,17
0.001244,-5,17,-2,-58,15,10
0.003701,-3,-5,-54,-89,54,-53
0.002377,19,-16,-7,-86,3,-24
0.001273,-42,7,8,-73,18,-6
0.004762,13,-2,50,-84,-6,5
0.001307,-8,50,21,-74,35,-18
0.002365,-13,4,-2,-71,0,-29
0.001307,-53,-1,-13,-77,6,13
0.003458,-4,35,-29,-74,-5,-16
0.002392,-12,29,-24,-117,-20,-16
0.001274,8,19,-8,-71,-3,5
0.004582,-27,-48,-18,-59,25,-50
0.001296,-19,39,-33,-67,-12,-16
0.001283,-18,17,-3,-45,22,-26
0.003475,21,-27,-25,-91,23,19
0.002389,-4,31,-18,-102,-10,16
0.001293,-21,-6,-42,-58,-3,-35
0.002351,1,51,3,-78,2,-43
0.003473,-12,-9,-9,-54,-2,-15
0.002388,11,-19,-59,-82,40,-37
0.001286,35,-21,-72,-75,13,-8
0.003467,-20,34,0,-70,-4,-13
0.002373,20,-1,-4,-93,-16,49
0.001287,-23,42,40,-90,-24,10
0.004580,22,11,27,-68,20,-27
0.001322,23,-6,-9,-79,-33,22
0.001279,-11,5,-6,-61,-17,27
0.003459,-4,-13,31,-70,46,9
0.002373,-18,32,34,-68,-4,44
0.001273,-2,-33,-18,-76,3,8
0.003517,-11,-36,-17,-88,-6,-13
0.002367,-41,40,3,-69,-8,15
0.002381,7,-33,-13,-75,-40,15
0.001352,-41,-45,11,-75,15,-17
0.003459,6,-10,20,-70,-28,2
0.002379,10,-19,10,-69,-23,41
0.001304,10,6,-5,-75,-27,39
0.004584,-20,22,-3,-65,24,-25
0.001272,-8,53,4,-86,-13,10
0.001279,-35,47,3,-51,-22,55
0.003475,15,-25,-21,-108,0,15
0.002382,37,-63,-43,-67,-2,-6
0.002373,-5,-13,16,-75,-24,9
0.002373,-9,-36,-1,-96,11,15
0.002384,-18,-6,40,-46,-9,-24
0.002383,-27,-36,-8,-68,-16,6
0.001334,-4,50,32,-64,12,19
0.003488,20,54,10,-99,-13,-28
0.002369,5,-29,13,-69,-31,15
0.001249,17,9,26,-72,0,0
0.004575,-26,26,6,-75,-7,-32
0.001272,-22,3,-33,-44,7,24
0.001278,11,-27,-8,-75,-8,30
0.003452,4,-3,17,-57,20,-15
0.002363,3,19,22,-74,-64,28
0.001294,-2,-8,22,-73,-12,-4
0.003475,-18,-68,28,-69,22,25
0.002387,8,-31,-17,-72,-11,-35
0.002367,-5,29,8,-68,34,-10
0.002397,-4,27,-13,-65,14,-21
0.002368,-37,2,1,-68,12,-18
0.002379,22,-23,13,-73,28,-55
0.001257,-27,25,2,-55,9,8
0.004567,-9,-11,17,-70,-14,-5
0.001282,30,-20,-18,-60,6,4
0.001284,-29,31,16,-65,11,9
0.003500,28,-20,-4,-41,24,0
0.002420,-15,2,-33,-73,-28,8
0.001290,-40,-7,-1,-90,47,-22
0.003469,16,18,9,-65,14,-25
0.002371,32,29,35,-73,-5,11
0.002359,3,0,7,-88,20,-15
0.002423,-46,-24,-28,-64,19,-7
0.002399,-12,-10,-22,-70,-6,-19
0.002383,21,-3,-37,-104,19,-9
0.001310,-3,-35,39,-39,-8,-33
0.004555,-26,-3,20,-59,-4,3
0.001272,-20,23,35,-86,9,23
0.001311,-30,2,14,-78,35,-12
0.003446,15,-54,4,-73,9,6
0.002380,10,-14,-27,-63,-54,7
0.001266,-17,-4,2,-93,15,5
0.003465,-13,38,6,-83,-22,-2
0.002366,0,-40,7,-67,-35,68
0.002379,10,-46,12,-65,-37,37
0.002407,-8,-5,26,-89,-5,-9
0.002340,4,17,48,-93,-27,19
0.002377,13,1,22,-89,-24,15
0.001299,28,-15,21,-105,-6,-33
0.004545,-5,-30,0,-60,-39,5
0.001270,2,15,31,-88,-49,-9
0.001327,28,-27,-15,-95,29,-22
0.003480,15,-23,-37,-80,-20,34
0.002380,-5,-14,19,-84,-45,24
0.001285,-12,41,49,-122,-25,2
0.003443,7,-40,1,-77,-8,2
0.002370,-37,10,6,-93,-40,22
0.002377,-49,3,5,-115,-18,9
0.001286,-23,38,38,-95,-10,26
0.003457,-18,38,25,-121,23,6
0.002383,-8,-31,16,-65,-36,19
0.001294,-11,-10,-8,-75,-25,17
0.004568,-3,16,23,-94,-12,-22
0.001300,-34,-18,-12,-77,-52,-3
0.001287,-24,-30,42,-96,17,-7
0.004556,-35,68,79,-94,-4,6
0.001298,-17,-6,12,-111,24,-11
0.001299,15,-77,-21,-111,-9,-27
0.004588,-11,2,42,-88,-1,-37
0.001339,-11,36,30,-69,-23,-27
0.002387,-17,-8,32,-94,-19,29
0.002392,-32,41,55,-105,22,-32
0.001362,-30,-11,-3,-102,-27,-40
0.003499,7,-19,-22,-115,-10,-26
0.002402,34,4,16,-109,5,-34
0.002385,-5,10,-19,-90,-15,16
0.002376,-4,19,-14,-84,-19,4
0.002383,45,-6,-7,-104,22,-37
0.002384,-28,-16,6,-102,-9,20
0.001289,34,-12,-1,-70,-16,-2
0.003470,-44,62,13,-86,2,-24
0.002383,-11,26,9,-105,-31,13
0.001289,-45,-39,15,-96,-14,3
0.003478,-28,-6,-21,-89,10,-6
0.002362,0,18,-3,-94,-5,-8
0.001312,1,-29,-23,-98,4,47
0.003490,-25,19,-26,-99,-12,-17
0.002377,-11,-1,35,-95,38,19
0.002369,-12,29,8,-96,-8,10
0.001285,5,-8,35,-85,-25,54
0.003497,-56,19,23,-112,61,15
0.002393,16,4,-12,-93,37,-24
0.001267,6,58,17,-81,22,-1
0.003467,14,-29,-5,-79,-7,22
0.003475,48,-46,-27,-93,40,22
0.000173,13,-5,-5,-78,19,30
0.004559,19,35,16,-115,-8,28
0.001293,24,-35,-17,-103,15,25
0.001273,16,7,-7,-44,-3,-10
0.004553,34,-21,20,-88,8,42
0.001279,-41,-19,32,-76,5,47
0.002348,5,8,16,-99,22,15
0.002356,6,36,-4,-61,43,15
0.002370,23,12,20,-87,-10,41
0.002368,-4,-20,16,-70,23,44
0.002375,-12,-51,-8,-76,37,39
0.002448,23,-40,-3,-65,1,37
0.002376,-87,51,26,-99,37,-1
0.002385,40,-22,-3,-72,25,6
0.002456,-26,-29,26,-116,41,41
0.002445,19,-25,22,-65,-13,38
0.002409,-53,11,26,-64,46,18
0.002376,18,-30,-18,-99,29,-2
0.001321,10,-43,-7,-89,-7,22
0.004535,1,-3,50,-79,42,6
0.001294,-27,-8,51,-97,32,13
0.001295,19,-33,-13,-90,14,-30
0.003521,-25,-19,12,-57,16,-13
0.002413,-24,-31,-20,-43,42,-45
0.001289,43,-25,-12,-54,5,-15
0.002402,-32,-18,28,-86,20,-23
0.003479,34,-41,-8,-63,-4,-21
0.002384,9,31,24,-64,-3,-32
0.001282,-5,9,-4,-55,-67,-37
0.003544,-11,-54,-25,-50,22,-43
0.002373,-3,24,15,-34,5,-69
0.001287,39,23,-4,-61,-21,-55
0.003490,-13,51,0,-50,0,-37
0.002394,-21,6,-37,-32,35,-66
0.001347,-20,-19,-17,-30,-26,-67
0.003489,8,-35,-13,-64,-25,-36
0.002364,9,-16,8,-35,-19,-35
0.001290,7,16,-3,-33,-13,-53
0.003481,-13,24,11,-56,-34,-22
0.001279,4,44,45,-38,-34,-15
0.003474,34,5,-39,-50,-10,-49
0.002427,9,-32,-35,-65,-45,-23
0.001289,-24,-1,4,-45,-70,-31
0.003488,18,-36,-24,-66,-13,-40
0.003496,-19,-30,-17,-51,-69,-17
0.001292,-6,-38,-3,-57,-28,-10
0.001289,-32,83,56,-79,-44,-12
0.003460,6,2,11,-65,-37,-27
0.002388,-14,13,2,-106,-63,-22
0.001266,3,31,2,-78,-77,12
0.003468,-19,45,14,-63,-25,5
0.002391,5,-9,4,-82,-51,20
0.001291,12,-14,-19,-59,-76,62
0.003475,-16,-53,-3,-89,-51,24
0.002389,-27,29,16,-93,-47,-31
0.001286,-10,24,21,-44,-71,62
0.002373,-37,-3,32,-75,-81,2
0.003454,7,26,1,-82,-53,29
0.002361,4,-3,7,-95,-58,59
0.001293,-26,-1,27,-129,-62,68
0.003481,-23,89,50,-106,-72,28
0.002387,36,-41,-19,-98,-74,38
0.001287,3,-50,-33,-116,-62,5
0.002378,11,41,58,-114,-43,24
0.003479,-18,-17,17,-95,-56,64
0.001286,-5,37,35,-120,-20,31
0.003520,3,12,15,-99,-76,34
0.002401,-26,-14,-26,-108,-44,10
0.001300,28,-31,-23,-142,-13,24
0.003672,24,-46,-7,-121,-50,2
0.001297,-5,5,13,-106,-3,13
0.003477,-32,4,22,-123,-45,-4
0.002358,2,4,28,-99,-47,13
0.001300,-9,22,-3,-122,-19,-5
0.003453,7,16,34,-120,-5,-8
0.002396,1,-23,-5,-120,-23,-3
0.001444,-34,-2,-18,-79,34,2
0.002322,-28,14,22,-72,34,16
0.003438,2,-5,24,-97,-18,14
0.002353,3,-8,7,-102,8,-45
0.001272,-43,31,6,-112,9,-23
0.003443,-21,-5,-36,-92,21,-32
0.002336,-7,1,10,-59,-2,2
0.001255,-9,11,27,-85,-13,3
0.004523,1,-20,13,-125,16,-30
0.001251,-33,5,4,-106,37,-14
0.001238,8,-4,21,-82,-25,9
0.003444,-31,-65,-35,-66,81,-44
0.002376,5,-32,-2,-90,30,-57
0.001245,-34,8,-2,-76,3,-10
0.004533,-3,-20,-55,-115,49,-39
0.001275,-11,-29,-29,-100,17,-20
0.002345,-73,14,-1,-89,27,-41
0.002351,-17,23,10,-107,28,-52
0.002342,-37,1,-6,-115,38,-22
0.002329,4,13,22,-100,-2,18
0.002355,11,-20,-17,-124,34,-10
0.003440,-20,-18,36,-88,73,-37
0.001224,11,3,21,-92,5,4
0.002356,-35,6,17,-96,40,-22
0.002342,-4,32,10,-97,75,-36
0.002331,-17,24,-10,-109,23,5
0.002343,-55,-4,-3,-75,60,-18
0.002332,-33,50,9,-79,44,12
0.002360,-17,13,-3,-80,20,-22
0.003451,-17,-45,-53,-114,21,8
0.001258,-17,-44,-55,-88,35,2
0.002330,4,-10,-8,-78,70,18
0.003450,-29,5,-5,-76,17,9
0.001255,-15,42,-12,-55,24,20
0.003415,-1,53,32,-58,78,15
0.002343,10,27,-20,-74,24,5
0.001232,14,27,4,-47,5,54
0.003421,-19,27,19,-71,53,8
0.002339,-6,-38,4,-84,43,-22
0.001250,-6,-75,-24,-96,12,9
0.003431,5,19,43,-82,20,34
0.002335,19,0,19,-73,53,-10
0.002341,-16,45,46,-69,37,11
0.002430,-25,51,19,-69,18,29
0.001377,30,41,36,-57,46,2
0.003500,6,2,-7,-57,20,41
0.002417,-2,75,9,-87,0,38
0.002430,-8,-31,-19,-84,37,23
0.002411,31,-43,6,-53,18,22
0.002419,-2,-16,45,-56,17,19
0.002409,22,-21,12,-58,44,17
0.001346,31,3,3,-48,24,30
0.003520,-12,12,40,-67,37,20
0.002401,-1,-27,8,-80,7,20
0.001317,-7,24,10,-56,-10,46
0.002419,35,-9,-26,-69,36,29
0.003515,-43,34,28,-69,-3,32
0.001304,-9,64,36,-75,12,-3
0.002393,4,55,48,-69,3,23
0.002412,-16,29,6,-54,-5,21
0.003500,5,8,34,-70,-29,0
0.002420,9,-34,16,-39,34,-15
0.001324,15,11,21,-70,-11,-20
0.003529,-1,18,-11,-68,-27,38
0.001292,-4,7,17,-74,12,9
0.002453,24,-43,-24,-65,-2,-4
0.002520,-16,-27,-6,-75,-3,33
0.001318,14,8,28,-62,2,-23
0.004644,-18,6,-6,-97,17,-43
0.001306,-8,17,3,-83,0,-25
0.001321,26,17,14,-59,-53,51
0.004657,-29,12,25,-75,13,13
0.001312,5,-21,28,-91,6,-21
0.002446,16,22,14,-88,-26,-18
0.002442,-20,25,12,-68,-10,-36
0.001386,37,-10,20,-68,17,-21
0.003553,-31,46,22,-76,-40,18
0.002429,0,-19,-3,-86,17,-47
0.001303,20,-4,19,-81,11,1
0.002411,-49,7,35,-104,0,23
0.003504,51,-46,3,-80,-45,8
0.002414,-22,36,-7,-64,32,-3
0.001318,-13,15,-1,-95,3,-15
0.002475,0,5,12,-83,-46,24
0.003497,1,13,7,-95,-6,27
0.001325,-5,21,24,-106,29,-52
0.003527,1,16,8,-79,-37,14
0.001406,-2,-12,0,-85,-14,-26
0.002450,-1,13,13,-98,-26,1
0.002458,1,-34,-4,-105,-13,-3
0.002442,-21,-16,4,-105,-28,18
0.002465,-36,-29,-14,-98,13,-25
0.002445,-21,40,22,-61,-34,29
0.002442,0,-22,-12,-100,-29,13
0.002425,-13,27,-6,-78,-21,1
0.001312,6,47,31,-86,-7,6
0.003537,-6,-14,1,-95,-32,-4
0.002442,-34,4,-15,-108,-28,26
0.001420,11,-20,-68,-78,-23,11
0.002417,0,-13,-8,-98,-32,7
0.003619,-17,-9,-11,-88,-61,0
0.001358,-19,-8,21,-115,-49,-12
0.003510,-3,3,-8,-91,-24,0
0.001344,-10,-33,19,-72,-22,-37
0.001360,25,40,33,-67,-35,20
0.004677,-39,24,16,-121,-40,-12
0.001337,-32,-16,-37,-65,-45,9
0.003609,-26,-14,-3,-55,-36,19
0.000256,-15,16,-12,-119,3,-18
0.003532,-22,8,39,-91,-18,9
0.002404,-5,78,-3,-90,-9,7
0.001323,18,-61,-15,-94,0,-10
0.004614,5,-11,-7,-93,14,-29
0.001316,1,-16,14,-99,12,-31
0.001321,7,4,-5,-89,-39,22
0.003511,11,51,6,-97,38,-45
0.002411,16,23,31,-105,32,6
0.002444,-32,32,-6,-111,-35,-17
0.002419,0,-58,-11,-90,3,-12
0.001309,-15,1,8,-83,16,-63
0.003512,12,31,-1,-56,-36,-5
0.002422,13,48,-12,-100,-29,3
0.001314,-8,-21,21,-88,5,-39
0.002472,7,-20,28,-45,-1,-10
0.003521,12,34,39,-68,-21,-2
0.002435,-32,-18,0,-84,-41,-25
0.001324,-32,33,16,-80,34,-48
0.001337,8,25,30,-49,-29,-16
0.004689,5,-14,-3,-75,-25,-54
0.001296,3,7,35,-92,25,-6
0.001376,22,20,18,-79,-3,-8
0.004734,-12,4,4,-56,-54,9
0.001325,21,15,46,-99,20,-4
0.002450,-24,1,-27,-115,-6,-8
0.002445,29,-13,-10,-43,-32,-11
0.001366,-15,16,12,-98,11,-46
0.003588,16,0,-8,-112,37,-18
0.002427,7,-26,-17,-72,-37,41
0.002431,-34,4,-13,-89,-27,-2
0.001339,-28,-4,2,-81,55,-13
0.003548,-9,-24,0,-61,1,-24
0.002515,-36,-17,21,-72,10,-4
0.001288,-1,0,27,-58,0,7
0.002445,-3,20,0,-72,1,-17
0.003532,-1,14,17,-78,-2,3
0.001328,-4,-25,2,-88,35,-8
0.002424,-16,-8,31,-58,11,11
0.002399,9,9,61,-53,-16,5
0.001417,31,-6,21,-61,7,14
0.003545,-7,47,14,-74,1,-13
0.002446,23,18,49,-69,-4,28
0.002432,-7,17,3,-79,-18,21
0.002440,21,32,-2,-103,24,-24
0.002420,9,-5,-17,-83,13,20
0.002431,-9,-55,21,-64,-64,45
0.001341,1,12,7,-108,52,-4
0.004643,16,-56,-13,-65,-15,32
0.001309,9,61,-1,-59,-49,16
0.001340,-19,72,40,-103,-24,-14
0.003501,28,9,1,-59,25,3
0.002434,18,-33,-8,-68,-70,55
0.001337,-1,-13,-25,-61,-6,-27
0.002413,-41,13,19,-62,8,-6
0.003517,6,48,21,-88,-19,24
0.002434,-10,-32,-6,-82,-37,-8
0.001367,-4,-12,12,-71,-12,-53
0.002457,-9,7,17,-47,-48,15
0.003518,-2,23,11,-81,-48,19
0.001617,-10,-85,-11,-44,-31,9
0.003522,15,-78,5,-85,5,-20
0.001328,-7,34,-15,-79,-88,26
0.001352,-11,5,23,-51,-32,13
0.003526,13,8,-9,-107,-32,-11
0.002463,-9,-44,-22,-94,8,-11
0.001301,2,4,-3,-45,-70,80
0.002548,-10,-68,-18,-89,-27,-13
0.003521,3,-32,-2,-68,-16,20
0.002399,25,3,-18,-78,6,-2
0.001324,-18,62,35,-87,-52,23
0.003498,-44,6,26,-84,14,8
0.002441,-8,-23,6,-109,-7,-3
0.001335,-47,-26,17,-82,-18,18
0.003541,-12,-39,-39,-75,-20,28
0.002409,-22,0,13,-71,27,28
0.001327,-1,-11,7,-101,-36,69
0.002387,4,5,-6,-69,6,12
0.002480,16,-2,-4,-67,40,10
0.002426,-27,-2,-5,-83,11,28
0.002455,-4,-61,-37,-97,28,39
0.002442,-36,-34,0,-102,33,-36
0.002520,6,-37,-12,-62,26,-2
0.002436,-33,11,32,-80,18,-25
0.002427,-10,41,53,-69,-1,-7
0.002579,7,-11,25,-72,53,-34
0.001533,-13,35,73,-75,21,-33
0.003612,13,-14,31,-86,-15,6
0.002459,-17,-51,-1,-74,53,-62
0.001328,32,-43,11,-53,56,-59
0.002418,-54,27,36,-41,1,-38
0.002445,-29,-54,-14,-65,20,-43
0.003514,11,2,-6,-84,40,-37
0.001317,24,18,17,-62,-18,30
0.002425,-30,2,-26,-67,34,-39
0.003526,-11,10,-24,-73,83,-98
0.001320,-17,38,21,-74,-6,-43
0.002435,-12,-2,1,-62,1,-39
0.002424,-21,24,2,-95,62,-60
0.002432,-15,7,-33,-81,13,-24
0.003556,-25,27,16,-60,-34,-34
0.001308,2,27,8,-75,42,-19
0.001326,40,-2,-10,-59,58,-40
0.003530,22,12,26,-102,-27,-1
0.002423,-4,21,40,-50,11,-6
0.001333,13,-3,19,-64,46,-3
0.002417,2,24,39,-91,17,-21
0.003500,2,34,24,-55,-5,60
0.002422,-3,13,17,-95,34,-35
0.001329,-15,18,6,-76,32,-28
0.003563,4,2,32,-85,-20,28
0.002472,-14,19,16,-76,71,26
0.001315,22,54,0,-117,39,26
0.003517,-6,35,-5,-85,-15,38
0.002433,-36,8,12,-105,6,26
0.001327,-15,32,16,-80,50,-30
0.002400,-6,-2,3,-93,-5,35
0.002407,35,38,15,-93,16,46
0.002415,7,-26,-6,-111,43,25
0.002422,8,13,-5,-94,21,14
0.002414,-11,-3,17,-104,8,13
0.003532,30,-36,38,-85,34,16
0.001323,23,18,25,-76,51,-29
0.002440,43,19,17,-99,7,12
0.002410,-5,38,14,-83,20,16
0.001391,17,80,16,-72,67,12
0.004602,-27,5,24,-109,9,0
0.001406,-18,-8,-19,-66,-4,29
0.001321,42,19,25,-65,26,-36
0.003512,2,-30,-27,-86,36,6
0.002416,50,-50,-3,-67,-7,29
0.001309,11,24,14,-81,-7,31
0.002465,-17,77,39,-85,-20,19
0.003496,59,12,27,-79,11,3
0.002424,20,-64,-2,-90,-24,0
0.001325,25,-48,-42,-68,-3,-5
0.002465,-7,-14,-14,-68,14,-3
0.003514,8,41,9,-83,-39,27
0.001308,22,40,20,-65,-1,-9
0.003593,24,16,52,-82,-11,31
0.002425,1,17,-2,-101,-46,17
0.001326,-24,53,6,-63,-2,0
0.002395,3,0,4,-71,-27,18
0.002427,0,-29,-13,-94,-11,-8
0.001310,10,-9,25,-64,-43,6
0.003567,-3,-34,19,-97,-13,-24
0.002471,-10,10,34,-102,-18,-54
0.002444,17,-24,-29,-108,0,13
0.001343,-15,30,-17,-94,-14,-5
0.003507,4,15,1,-95,13,4
0.002453,-38,-42,-1,-100,-19,33
0.001343,34,17,11,-108,7,-10
0.003825,0,46,48,-105,4,7
0.002398,9,24,5,-100,-5,15
0.001352,9,-40,-25,-73,-17,-13
0.002446,-31,-28,-14,-69,20,-19
0.002430,16,9,7,-84,-2,17
0.001350,-13,-21,1,-78,-4,39
0.003540,15,-32,-5,-73,-13,-14
0.002478,1,27,23,-26,11,-10
0.002416,7,33,18,-64,-31,-9
0.002415,-23,21,7,-45,17,3
0.002424,3,-10,17,-37,-29,-4
0.002381,-17,-63,-23,-51,-9,1
0.001333,-22,-41,-5,-67,-55,-1
0.004676,2,34,-11,-49,-13,-32
0.001333,-2,-9,-19,-63,-23,-48
0.001355,1,-12,-24,-51,-54,11
0.002483,-11,17,-3,-86,-31,-56
0.003757,12,-33,-10,-64,-59,-22
0.001331,-51,30,-7,-52,-74,19
0.002415,-2,-1,24,-93,-41,-5
0.002425,0,-19,-31,-105,-29,6
0.002506,41,-31,-7,-68,-23,-42
0.002445,-42,-3,8,-79,-51,-20
0.002439,-18,21,39,-109,-62,-8
0.002457,16,-9,-4,-86,-27,-32
0.001337,9,13,-15,-116,-65,-29
0.004609,0,29,7,-74,23,-57
0.001394,21,-33,-32,-133,-41,-20
0.001353,-15,-28,-6,-83,-29,-4
0.002416,-26,51,15,-92,-36,8
0.003545,-13,-12,22,-98,31,-23
0.001330,-15,33,34,-126,-11,5
0.003547,-2,-29,0,-110,-13,-7
0.001406,5,-26,-40,-95,19,-34
0.003579,-18,24,-15,-109,60,-22
0.001345,-16,17,-36,-97,-24,-12
0.002416,-4,30,9,-90,74,-9
0.002479,-15,-38,-20,-75,20,-15
0.001388,-13,31,25,-55,5,28
0.003533,-61,-5,30,-53,13,-36
0.002428,17,-52,20,-56,34,-76
0.001321,-25,73,9,-20,-30,45
0.004631,13,-20,-17,-51,5,-13
0.001352,-14,-29,-27,-55,36,-5
0.001312,-6,62,34,-45,8,-14
0.003509,20,0,7,-17,-51,51
0.002411,19,-5,6,-53,-42,-6
0.002442,-6,81,40,-69,-17,-8
0.002431,34,-8,-26,-64,-43,36
0.001319,-22,8,40,-73,-44,16
0.003564,31,-68,18,-53,0,6
0.002805,-16,-18,-27,-112,-26,17
0.002462,-24,-26,-12,-101,-37,11
0.001313,9,-3,1,-113,11,-28
0.002460,7,25,-4,-128,-3,9
0.002449,8,-12,15,-85,-23,29
0.002430,-29,23,11,-143,27,42
0.002506,-39,27,-1,-136,24,20
0.002486,-24,-42,-19,-66,-12,10
0.001356,-3,5,38,-105,-33,25
0.002525,13,-31,17,-122,53,-3
0.003534,42,-67,6,-61,19,6
0.001322,10,-18,3,-97,-10,-1
0.002406,-47,34,9,-63,21,1
0.002449,6,-35,-7,-93,51,-54
0.002619,5,20,-3,-75,2,20
0.002423,-2,10,44,-75,36,-7
0.002414,9,43,14,-99,42,-41
0.002386,-37,-14,1,-95,18,10
0.002389,-6,28,60,-79,6,3
0.002448,-14,-21,30,-74,60,-25
0.002406,10,-7,7,-29,38,-22
0.001319,21,-16,-5,-54,1,-10
0.004629,-23,10,-18,-43,26,-9
0.001372,12,21,2,-26,50,-23
0.001310,-46,33,18,-68,55,2
0.003557,-27,45,6,-53,-7,-3
0.002440,-13,28,14,-39,28,-7
0.002444,-18,17,-5,-84,26,-47
0.003564,52,-60,-20,-57,13,-21
0.000205,-20,0,14,-74,-16,0
0.003533,3,31,-15,-68,39,-47
0.002417,-7,1,-59,-47,-70,28
0.001355,12,-26,-23,-54,-32,10
0.002435,-9,-15,-33,-71,11,-51
0.003528,19,0,-17,-27,-13,-42
0.002463,-17,3,-13,-60,-59,-4
0.001302,14,0,10,-80,9,-51
0.002419,15,19,20,-50,-25,21
0.003536,-26,-5,-20,-36,-73,26
0.001342,18,-49,-14,-74,-28,-44
0.003546,-13,15,-23,-74,-13,-12
0.001319,25,52,10,-72,-69,13
0.001392,26,15,-11,-85,-51,20
0.003521,15,-14,-7,-58,-4,13
0.002429,12,13,-21,-85,-47,-4
0.001310,5,-49,3,-86,-84,16
0.002489,21,-15,-42,-65,-32,19
0.003510,-2,51,7,-87,-42,20
0.002438,7,-2,-7,-63,-48,34
0.001332,1,5,-17,-108,-69,64
0.002486,-11,-29,-65,-138,-5,-9
0.003535,18,7,-10,-80,-51,34
0.001323,-34,40,23,-95,-47,56
0.002399,-21,82,26,-98,9,0
0.002438,-52,4,19,-92,-59,18
0.002406,-4,17,5,-98,-58,44
0.003550,-10,-3,-6,-97,-26,30
0.001318,-41,56,15,-119,3,17
0.001326,10,-38,-6,-86,-21,16
0.004620,-16,53,19,-95,-34,2
0.001333,-28,10,-7,-65,-12,-17
0.002435,-49,-11,-41,-81,31,-40
0.003516,-47,55,6,-61,-82,39
0.001318,-23,40,8,-97,-32,19
0.002411,3,52,11,-85,52,-36
0.002476,28,-22,-14,-42,-31,19
0.002412,-7,-26,1,-89,-39,4
0.002615,-38,35,34,-86,48,-47
0.002456,15,-11,20,-107,-109,-14
0.002432,-9,-11,26,-98,-3,-44
0.001342,-9,-62,-22,-108,-1,-56
0.003567,-12,16,40,-105,-73,20
0.002458,-41,-54,16,-77,7,-107
0.002430,40,-2,18,-51,-75,-30
0.001334,-56,3,-6,-107,-25,-30
0.003521,15,-9,4,-121,67,-57
0.001311,15,6,27,-52,-64,41
0.002444,-10,18,-30,-115,10,-54
0.002419,-6,20,1,-150,34,-18
0.003582,20,-28,12,-121,-78,3
0.001321,-17,42,35,-93,-3,15
0.002421,-18,30,60,-124,-4,0
0.002472,-1,18,-18,-123,-3,-3
0.001523,-32,2,-9,-128,-45,52
0.003557,-34,8,37,-111,27,-28
0.002460,-19,0,16,-83,18,6
0.001320,-34,4,16,-103,-36,54
0.002427,-42,-12,14,-89,-12,-2
0.003515,-73,18,17,-108,24,-3
0.001318,-4,-35,-3,-102,6,38
0.002431,-5,-26,15,-94,48,37
0.002407,-57,40,58,-90,43,1
0.003529,-23,-28,-3,-89,31,-11
0.001312,-17,8,22,-57,52,52
0.002427,-5,-42,-7,-133,40,22
0.002410,-40,36,23,-99,20,34
0.002447,-16,-17,-15,-65,114,-8
0.002443,4,12,-21,-97,41,54
0.002395,4,55,5,-105,34,22
0.001321,2,39,-12,-76,137,-10
0.004623,15,28,11,-108,26,38
0.001325,-17,-7,24,-118,90,-8
0.001326,32,-59,-3,-100,56,35
0.004619,-26,-9,-5,-96,38,43
0.001311,-8,32,0,-105,37,10
0.002437,31,-28,-11,-99,68,-22
0.002421,-5,34,10,-64,-25,20
0.001317,-22,14,5,-83,61,-2
0.003542,24,-36,12,-106,100,-45
0.002391,-3,1,6,-75,-69,36
0.001341,-18,-37,-35,-66,37,-12
0.002572,4,-14,-23,-80,147,-86
0.003534,37,26,2,-46,-148,24
0.002429,-28,-3,1,-52,98,-102
0.001345,28,-44,-35,-94,130,-83
0.002458,-24,28,45,-15,-142,67
0.003623,-26,-24,16,-39,62,-70
0.001329,23,4,-37,-44,113,-59
0.003565,2,-35,20,-82,-158,33
0.001323,-24,5,21,-33,53,-41
0.002422,-1,21,34,-81,83,-86
0.002422,6,32,19,-52,-108,51
0.002469,13,-13,11,-50,34,-31
0.001323,7,-16,28,-84,120,-65
0.003522,-9,12,-6,-82,-117,43
0.002418,-9,14,11,-66,16,-44
0.002438,34,-42,-28,-117,35,-15
0.001330,0,-12,8,-72,-63,87
0.003521,-21,1,6,-100,121,-57
0.002438,25,-29,-28,-103,-32,28
0.001324,-48,-19,13,-94,-6,36
0.002453,16,-4,14,-104,158,-22
0.003537,24,55,17,-101,-86,70
0.001320,-6,-26,1,-112,36,26
0.003560,-11,-35,-23,-115,103,5
0.001356,25,-1,7,-104,-88,52
0.001321,-84,0,9,-119,79,-38
0.004623,29,-39,-22,-102,50,27
0.001321,-54,7,-28,-88,-50,48
0.002449,8,50,60,-101,101,-63
0.003510,46,-35,26,-63,31,18
0.001297,8,15,-2,-88,30,27
0.002429,3,-30,-30,-102,83,-18
0.002436,0,-44,10,-99,-41,34
0.003498,-4,7,44,-31,67,13
0.001308,28,28,23,-77,54,-9
0.002393,1,-3,7,-76,-16,6
0.003506,-9,2,21,-68,62,-38
0.001321,5,-11,24,-65,8,40
0.003563,-14,-31,-19,-85,-19,23
0.001306,1,43,-5,-84,19,-55
0.002405,25,83,38,-57,-62,3
0.002423,-18,-15,-12,-84,6,14
0.002422,14,-63,10,-126,4,24
0.001362,19,47,32,-74,-91,28
0.003533,-6,-26,-1,-85,56,-47
0.002424,40,-72,-12,-90,23,34
0.002465,17,22,12,-133,-156,83
0.001361,-3,-12,21,-86,109,-99
0.002565,26,-11,-27,-88,6,-16
0.003565,-1,-7,-14,-134,-128,96
0.001360,-11,-12,-53,-117,131,-89
0.002447,47,43,14,-61,-49,-10
0.004653,-31,-7,2,-61,-118,63
0.001354,-3,17,75,-110,124,-18
0.001303,2,27,25,-103,26,1
0.002432,18,21,-49,-85,-49,26
0.001328,5,-68,-49,-73,-62,37
0.003576,-29,55,22,-107,86,-85
0.002442,46,0,14,-70,-50,47
0.002448,-5,-33,-15,-52,-101,27
0.001415,9,-24,-29,-70,108,-50
0.003543,40,-14,15,-85,26,-40
0.002423,-38,9,17,-96,-79,62
0.001357,-14,-25,-30,-57,67,-39
0.002461,1,-37,16,-67,8,8
0.003540,-18,53,6,-100,-43,14
0.001311,18,-5,19,-91,29,15
0.002463,25,-5,14,-98,-4,-11
0.002405,37,-26,39,-93,4,16
0.002407,-9,27,22,-108,24,3
0.002440,-1,-11,12,-79,-23,15
0.002444,-12,-24,-15,-90,64,-47
0.002430,20,-72,-30,-69,-89,43
0.002412,-25,-46,-7,-71,-9,6
0.002428,-4,0,37,-56,92,-34
0.002452,-19,-21,-12,-72,-134,57
0.001333,-11,25,49,-106,25,-11
0.003487,8,6,22,-57,1,-5
0.002417,-30,67,12,-67,-49,6
0.001301,26,15,3,-89,22,-9
0.004636,18,-36,-15,-82,-64,25
0.001325,-36,41,-3,-84,45,-30
0.001325,31,-16,-16,-95,-20,2
0.003566,19,-43,-8,-80,-81,-7
0.001391,36,-30,6,-91,34,-35
0.003538,-2,36,21,-115,-72,-27
0.001338,22,-9,-17,-102,-42,-25
0.002474,-16,41,-18,-104,-10,-27
0.003522,0,30,6,-87,-108,6
0.001309,-22,-6,1,-99,2,-23
0.002467,6,-50,-36,-56,66,-56
0.002465,23,-44,-41,-103,-176,35
0.001344,-38,-25,-13,-53,-29,-13
0.004631,-47,3,-16,-55,109,-70
0.001317,-7,47,9,-148,-82,37
0.001345,9,14,-17,-42,-188,-3
0.005744,-15,16,-33,-72,164,-148
0.000211,28,-3,11,-127,2,-57
0.002437,-42,72,-15,-37,-233,50
0.002433,2,10,-25,-103,48,-112
0.002481,20,17,-13,-38,130,-145
0.002460,-23,8,-13,-121,-197,42
0.002433,-15,51,33,-83,-51,-29
0.002442,-36,2,-14,-18,252,-183
0.002447,65,-2,-3,-200,-166,86
0.001351,-7,29,52,-22,-125,18
0.003558,37,-27,-2,-60,265,-169
0.001343,58,-8,-13,-125,-119,57
0.001335,-45,-8,-3,-12,-214,83
0.004672,10,-39,-18,-78,216,-115
0.001320,64,28,-9,-58,-11,-5
0.002430,-7,29,1,-101,-208,97
0.003823,-44,34,3,-87,71,32
0.000549,10,22,7,-5,75,-48
0.002595,-44,9,16,-143,-136,22
0.003600,-31,-4,33,-35,-129,101
0.002509,-30,44,-20,9,138,-140
0.001350,18,18,-5,-154,-31,-29
0.001341,-44,66,30,28,-295,148
0.004636,-40,10,4,-98,161,-70
0.001495,57,-14,-6,-139,82,-117
0.001323,-5,1,-4,-8,-376,160
0.003535,-98,43,24,-134,52,-30
0.001334,54,-5,-6,-17,162,-175
0.003617,-33,0,-2,-136,-179,92
0.002454,-65,-64,-13,-76,-112,85
0.001343,30,-28,14,-36,184,-89
0.002434,-10,-29,8,-158,8,42
0.003564,-12,19,-4,-6,-209,147
0.002470,-46,-4,-8,-106,107,-32
0.001331,15,20,8,-119,189,-68
0.001337,-16,4,-1,-50,-206,174
0.004650,-62,20,-10,-113,25,57
0.001346,-4,22,-23,-31,217,-127
0.001340,12,26,-5,-60,-157,115
0.003548,-63,67,38,-28,-103,140
0.002447,6,-28,4,-29,206,-119
0.002417,17,28,15,-103,29,11
0.002434,0,44,12,-1,-221,172
0.001345,-57,-10,1,-39,140,-84
0.003578,29,-59,-65,-84,125,-96
0.002491,-16,-24,-29,-1,-207,80
0.002412,-41,62,25,1,77,-27
0.001374,-12,15,36,-34,211,-180
0.002447,57,-36,-14,-51,-146,63
0.003509,-34,17,0,7,-39,57
0.001337,-6,8,-11,-10,189,-167
0.001346,35,-13,-11,-92,-20,-23
0.004597,-30,-37,17,8,-109,42
0.001349,-14,61,6,-8,143,-120
0.002437,-4,-2,-45,-86,-40,-50
0.003536,-18,-23,-17,-49,23,18
0.001352,4,-39,0,-81,85,-38
0.002421,19,3,-7,-79,-96,-22
0.002435,-2,-25,26,-17,139,-65
0.001293,5,6,36,-62,86,-3
0.003519,12,34,43,-85,-186,81
0.002440,-37,20,33,-78,200,-125
0.002459,69,-31,-10,-63,126,-27
0.001472,-68,-25,29,-91,-293,180
0.003536,-60,1,27,-56,209,-124
0.002424,22,-7,-2,-74,144,-66
0.001362,-34,1,-39,-54,-209,146
0.004648,-31,-26,-33,-59,91,-34
0.001327,-4,-15,23,-84,131,-4
0.001337,-17,-26,12,-26,-79,80
0.002450,-14,-29,-29,-29,-17,45
0.002471,-49,15,26,-102,54,-55
0.003534,26,-9,17,-10,100,-35
0.001331,7,-31,2,-59,-86,89
0.002433,23,-12,27,-99,-44,29
0.003610,-31,22,48,-46,239,-132
0.001570,13,-13,-10,-53,-163,100
0.001366,-43,27,-11,-58,-83,45
0.003588,-29,0,-12,-28,272,-170
0.001321,67,-58,-1,-33,-75,89
0.003524,-48,-21,-1,-50,-76,90
0.002439,20,-19,1,-63,163,-39
0.001305,16,-43,1,-48,34,27
0.002402,2,-15,26,-49,-12,52
0.003505,-11,24,9,-65,-53,25
0.002449,-46,19,14,-58,199,-112
0.001318,19,38,-8,-70,-65,37
0.003541,-63,26,16,-39,-181,72
0.002455,-58,-40,27,-86,264,-215
0.001334,71,-53,-23,-64,-93,64
0.001398,-68,-11,-19,-38,-200,47
0.004656,-19,24,-12,-68,294,-223
0.001310,26,5,2,-18,-147,73
0.002430,-44,6,-15,-47,-7,28
0.001342,50,-10,-15,-62,160,-63
0.003524,48,-20,-5,-46,-46,70
0.002420,0,7,-10,-64,-6,-51
0.001330,28,16,70,-70,-37,-34
0.002427,-10,46,33,-83,55,-49
0.003554,51,-61,-47,-48,-18,19
0.001363,-5,-37,-16,-61,-129,74
0.003576,12,-8,18,-97,102,-111
0.001316,35,73,25,-78,-57,36
0.002451,-24,-5,-10,-78,-120,5
0.003535,12,-38,-11,-77,98,-119
0.001322,-7,-22,19,-63,-97,40
0.002479,-36,10,22,-106,26,-34
0.002426,20,63,31,-87,-3,28
0.002458,-10,8,12,-75,-23,86
0.002414,22,-9,12,-31,112,14
0.001331,-6,-30,27,-96,-139,51
0.003550,-31,-4,5,-109,-16,-13
0.002396,2,32,26,-67,46,25
0.001307,-5,-4,9,-118,-81,9
0.004631,-51,41,8,-78,15,24
0.001332,35,15,-1,-90,-13,8
0.001321,0,18,-20,-81,63,-10
0.003529,-2,65,20,-96,-83,102
0.002413,-13,1,60,-69,26,-3
0.002435,31,-49,-20,-100,10,44
0.001405,-18,-11,-48,-77,-148,68
0.002422,0,-20,5,-101,19,-85
0.003530,26,15,-27,-28,-56,19
0.001327,2,-56,-4,-106,30,-74
0.002407,-8,9,-13,-80,38,-3
0.003534,-35,-19,10,-87,-40,84
0.001318,-38,-18,-5,-94,93,1
0.003539,-14,25,41,-136,-98,68
0.001325,-53,-5,17,-112,-8,-2
0.001344,24,-28,-16,-107,47,-25
0.004665,-19,-54,-24,-140,-31,-31
0.002470,-29,26,9,-136,44,-15
0.001324,-24,2,15,-150,-19,22
0.002515,-31,18,-4,-144,48,24
0.002436,7,15,19,-101,-2,24
0.002455,45,-12,-23,-142,-37,7
0.002450,31,12,-13,-134,-22,-12
0.002418,-5,-48,-25,-90,8,-28
0.002470,4,32,23,-107,-31,5
0.001351,-20,-23,-23,-127,-2,-40
0.003535,1,-10,-50,-97,150,-68
0.001314,0,-9,2,-159,-88,101
0.002441,-69,-17,0,-141,126,-39
0.003534,35,31,-46,-101,-7,50
0.001318,13,47,4,-159,-86,18
0.002575,-31,-34,-37,-114,101,-58
0.003537,3,-6,-20,-121,-212,90
0.001367,-66,-41,-20,-162,149,-143
0.002426,42,13,-15,-153,-12,36
0.002445,-19,-5,-55,-154,-74,43
0.003555,28,-52,-29,-123,193,-74
0.001342,37,54,-6,-142,-212,102
0.001372,-20,-16,-28,-133,106,-101
0.003535,62,24,-54,-113,-56,70
0.002435,-43,5,-26,-159,-72,47
0.001332,-8,48,12,-127,157,-77
0.003562,-3,-31,-34,-136,-122,131
0.001345,-66,60,17,-145,101,-36
0.003572,56,-32,-35,-136,14,32
0.002441,-33,-4,-41,-148,-83,26
0.001332,-2,-35,-20,-137,33,28
0.002451,-7,-12,-21,-138,-32,-19
0.003517,0,17,-7,-143,51,-41
0.002441,58,-42,-30,-143,-38,-2
0.001333,-28,24,15,-159,49,-31
0.001325,-13,6,-26,-135,45,-4
0.004641,-10,32,-26,-151,-59,62
0.001333,-19,43,41,-84,109,-51
0.001324,-5,28,68,-133,-13,11
0.003585,24,6,-2,-113,27,-22
0.002450,-1,-34,-6,-95,21,23
0.002433,-21,-6,-6,-161,-18,-7
0.002433,-37,-18,6,-118,29,-36
0.001291,15,0,2,-84,-2,38
0.004622,-25,-53,1,-137,2,-6
0.001292,19,26,8,-92,68,2
0.002393,1,8,7,-89,-43,44
0.002448,-13,20,-8,-110,54,-33
0.001311,7,17,29,-96,48,-50
0.003525,46,-22,-8,-75,-43,67
0.001333,33,-33,-20,-95,44,-20
0.002440,-10,13,-16,-104,27,-24
0.003493,30,-48,5,-62,6,1
0.001317,21,-5,59,-67,58,-37
0.002486,34,-37,20,-115,-10,12
0.003508,2,47,21,-54,12,-29
0.001317,42,-6,-6,-73,38,-28
0.002441,-38,-32,-6,-88,-77,11
0.002448,28,-8,20,-67,36,-26
0.003527,-27,27,36,-75,12,-68
0.001322,-15,76,45,-45,-25,24
0.002413,21,45,24,-36,10,-45
0.003517,7,24,-12,-63,3,18
0.001301,3,9,15,-55,54,-40
0.002429,-18,-19,5,-70,-89,36
0.002420,-18,19,27,-82,7,-21
0.001327,37,-20,-4,-74,91,-40
0.003518,16,-51,3,-65,-117,34
0.002444,-17,-27,-4,-66,52,-15
0.001328,27,-7,-21,-46,75,-20
0.002498,1,-7,-12,-80,-65,24
0.003532,-15,23,-4,-85,41,-30
0.002422,2,52,10,-103,-3,-13
0.001311,-27,0,20,-101,4,-1
0.002431,50,-5,13,-109,5,22
0.003564,-12,-2,18,-79,33,3
0.001329,-1,20,56,-111,60,-37
0.002427,-26,14,31,-82,-55,34
0.002446,-7,-28,-5,-90,-20,18
0.002390,8,43,4,-87,48,6
0.003582,-11,0,27,-117,-108,68
0.001290,-11,2,37,-69,4,9
0.001329,-8,-37,-15,-96,25,-38
0.004634,19,-46,-13,-92,-36,29
0.001335,-22,18,62,-107,-51,22
0.002419,44,-17,33,-92,-3,26
0.003528,-23,14,-4,-86,-37,15
0.001365,13,57,20,-52,-104,18
0.002396,5,-6,39,-70,-3,2
0.002491,30,-58,-14,-121,9,-1
0.003534,7,-60,18,-101,-119,43
0.001340,-20,-67,-32,-94,-2,-32
0.002436,33,7,11,-89,-20,-2
0.002462,-33,-28,16,-120,-130,1
0.001391,17,-21,-17,-104,4,-3
0.003509,10,10,3,-114,-78,-3
0.002430,-32,30,1,-93,-44,-59
0.001318,10,68,20,-73,-78,-8
0.004676,-67,19,-12,-121,-79,1
0.001336,-23,57,8,-106,-41,-51
0.001327,-58,53,9,-76,-62,-22
0.002444,-4,-11,-38,-68,-56,-32
0.002442,-11,22,-29,-109,-53,-32
0.002428,22,-18,7,-65,-78,-29
0.002427,-26,9,14,-49,-12,-74
0.002418,2,49,32,-40,-18,-40
0.002495,-12,-50,-19,-67,-82,-62
0.002417,-4,50,12,-85,-34,-42
0.002413,2,1,19,-61,-44,-94
0.002454,-14,-10,-13,-30,-32,-54
0.001398,-3,9,-13,-67,-65,-67
0.002448,-9,1,13,-40,9,-58
0.003582,-18,8,0,-63,-32,-25
0.001314,16,27,1,-56,-62,-56
0.003568,-18,29,-16,-16,-15,-47
0.001398,25,-12,-35,-65,24,-55
0.002455,-6,-36,-1,-59,-96,21
0.003533,-15,7,-2,-49,-14,-35
0.001344,-44,100,48,-54,-21,-28
0.002463,-9,22,11,-22,-56,34
0.003497,-26,-7,-12,-35,63,-18
0.001340,-12,58,17,-82,-86,21
0.002468,-20,34,-10,-38,-128,62
0.002426,-33,14,-1,-43,92,-68
0.003515,6,45,0,-119,-2,5
0.001355,-29,27,-10,-30,-181,76
0.002440,14,19,-13,-41,116,-71
0.002455,3,41,-19,-91,64,-98
0.002508,6,42,20,-50,-166,48
0.002471,-9,22,-12,-71,-48,-32
0.002476,-21,61,-38,-9,178,-158
0.001344,-3,28,25,-116,-141,86
0.002548,-34,-7,11,1,-102,37
0.003585,-8,-1,-33,-13,174,-119
0.002435,7,-19,-2,-78,-15,-25
0.001337,-10,13,45,-16,-169,87
0.002454,-25,16,13,-27,178,-45
0.003640,45,-30,-2,-23,97,-45
0.001348,1,16,-15,-52,-187,132
0.002441,-41,-18,-11,-64,41,55
0.002431,16,9,13,-10,213,-136
0.001392,19,12,-19,-50,-172,47
0.003575,-76,35,-24,-18,-54,37
0.002460,0,-11,1,-69,216,-116
0.001324,10,19,12,-36,-82,82
0.003769,8,6,-46,-7,-153,70
0.001450,10,2,7,-56,169,-104
0.002470,-7,38,10,-103,70,-50
0.002434,13,26,31,-5,-206,121
0.002471,-48,-3,9,-61,98,-91
0.002442,10,33,25,-43,182,-100
0.001451,-3,-52,-49,-42,-135,126
0.003610,0,16,-22,-53,-19,33
0.002471,-5,86,19,-78,205,-172
0.001339,12,34,19,-75,-12,42
0.002434,-17,-91,6,-40,-78,87
0.003587,-50,-29,-21,-35,149,-53
0.001347,32,-32,-17,-57,73,-43
0.003545,-45,38,4,-11,-134,106
0.001329,-80,24,19,-52,124,32
0.001344,16,-20,17,-54,65,-44
0.004647,-30,-8,-5,-41,-118,59
0.001297,-3,22,6,-47,9,47
0.002452,-40,-20,24,-79,112,-50
0.002558,0,-4,28,-88,-87,51
0.002479,-37,5,-27,-18,-118,78
0.002434,3,-1,-19,-94,125,-71
0.002459,14,-28,-1,-109,12,-24
0.001320,-14,3,7,-84,-155,78
0.002551,-36,-15,16,-105,-8,-65
0.003544,-1,-13,-3,-61,112,-32
0.002462,11,-20,-4,-95,-38,34
0.001338,-47,5,37,-67,-163,102
0.002461,-11,51,45,-59,58,-27
0.003596,14,38,48,-47,170,-73
0.001364,20,-52,-38,-55,-171,81
0.003569,-36,9,-15,-44,-148,100
0.002601,-20,21,-16,-81,199,-154
0.000198,11,0,12,-36,75,13
0.003588,-36,-32,29,-89,-188,130
0.002438,-66,0,34,-90,-84,-71
0.001313,6,40,37,-68,91,-73
0.002408,3,20,-3,-78,15,19
0.003581,-22,-19,-31,-65,-55,11
0.002455,10,-4,19,-41,47,4
0.001355,-21,-26,-9,-161,-46,-58
0.002415,-9,4,10,-60,-64,55
0.003589,-39,-14,-32,-87,187,-79
0.001360,16,-10,6,-151,41,-48
0.002448,-22,55,-24,-84,-100,86
0.002449,-28,-4,-12,-104,52,-41
0.001345,28,-53,-16,-96,119,-55
0.004730,-13,-48,-26,-55,-14,39
0.001356,-19,12,-10,-107,-128,30
0.001375,-17,32,1,-79,200,-117
0.003566,-11,5,-35,-105,18,-36
0.001384,22,-25,-3,-66,-152,143
0.003565,-38,-17,-4,-91,145,-78
0.002434,-3,14,0,-130,134,-98
0.001321,-9,17,3,-72,-177,86
0.002465,-63,-7,-11,-91,-23,-36
0.003522,5,-3,4,-93,122,-95
0.002428,-16,0,35,-117,66,11
0.001337,-15,28,13,-91,-139,87
0.002457,-26,-16,10,-85,46,-40
0.003584,5,-41,-39,-121,138,-79
0.001328,22,42,12,-95,-90,6
0.002440,-17,-9,-31,-64,-79,81
0.002457,-47,-2,-17,-116,164,-75
0.001381,13,22,27,-51,112,-30
0.003551,11,-14,-12,-96,-210,141
0.002482,-63,48,29,-59,58,-86
0.001323,27,3,-31,-89,65,-44
0.002429,-42,-36,-4,-69,-18,6
0.003581,3,19,-33,-127,-20,-15
0.002447,7,-11,0,-81,16,21
0.001321,2,27,-3,-100,-71,3
0.002424,-14,5,-18,-105,51,-9
0.003506,21,-6,7,-96,0,1
0.001333,-14,-12,25,-136,39,13
0.003574,-28,-21,-12,-96,-170,58
0.003536,-44,-3,5,-107,156,-89
0.001301,34,1,17,-106,6,35
0.001324,-72,9,-8,-98,-12,55
0.002433,6,-30,-32,-133,-86,21
0.001374,-62,13,-11,-98,97,-25
0.003518,-4,6,24,-136,-88,54
0.002442,-4,-17,-16,-107,105,10
0.002443,21,-14,-59,-108,-44,25
0.001387,-9,34,3,-112,101,34
0.003593,-37,29,37,-144,-116,74
0.002428,-28,25,-6,-105,92,30
0.001344,-9,-41,-10,-113,-48,-7
0.003587,-12,-19,-8,-88,128,-57
0.002434,8,-13,-15,-109,-93,92
0.001347,2,14,-34,-97,128,-25
0.002477,8,-1,-27,-142,-149,34
0.002434,-33,31,28,-82,124,29
0.002436,10,-38,-12,-137,-72,9
0.002491,-11,26,22,-111,102,-20
0.002426,11,9,33,-151,-192,76
0.002443,-17,-8,-40,-74,179,-78
0.002459,-21,-32,-12,-155,-123,32
0.002447,-31,31,12,-102,106,-22
0.002434,-9,34,27,-157,-114,27
0.001373,-27,33,33,-94,178,-55
0.004637,20,-1,16,-140,-224,50
0.001333,-7,-21,-11,-63,115,-3
0.001326,18,0,-9,-165,-89,-55
0.002420,-14,26,12,-84,152,4
0.003557,59,-27,-12,-194,-204,15
0.001333,-57,45,-12,-60,55,-22
0.002443,-6,14,-35,-181,-62,-36
0.002433,-13,-5,11,-10,151,-43
0.003536,35,-2,26,-149,-77,-28
0.001303,8,-30,6,-28,81,24
0.002450,-18,71,45,-157,-106,-11
0.003525,-20,22,17,-46,99,19
0.001357,4,-13,-18,-117,-104,12
0.002402,3,5,-34,-50,-21,4
0.002511,-19,31,31,-128,-73,-60
0.001340,-20,46,5,-36,-7,-29
0.004687,-16,12,11,-133,-71,-44
0.001375,13,-13,-10,-43,62,-31
0.002431,15,26,24,-139,27,-21
0.002428,3,41,13,-69,40,12
0.002457,2,-56,3,-115,-57,27
0.002435,50,-65,5,-82,26,53
0.002464,-34,-9,39,-128,-58,-39
0.001319,-2,14,24,-35,-26,17
0.003572,-32,-7,30,-94,53,-115
0.002419,20,48,65,4,88,-13
0.002439,-11,-22,6,-101,43,-21
0.001327,-4,-11,9,-69,18,67
0.002448,7,-8,15,-75,24,3
0.003551,11,-3,0,-87,-98,27
0.001337,-26,-12,4,-67,-17,-34
0.001327,53,-20,36,-34,92,-73
0.004780,-44,40,63,-81,57,-3
0.001353,19,19,2,-38,-14,86
0.002459,-31,-18,32,-115,120,-52
0.002457,49,-41,14,-104,-104,103
0.001403,-32,-44,7,-106,-48,-18
0.003518,-5,31,12,-41,-18,1
0.002484,-10,29,21,-85,70,-71
0.001297,0,39,56,-82,5,47
0.002432,-7,14,48,-90,18,24
0.003533,-7,-55,3,-115,-18,4
0.002489,32,-46,-3,-117,-31,17
0.001321,-11,11,2,-84,13,-24
0.002434,-19,6,1,-106,7,-36
0.003520,23,-8,17,-75,-31,4
0.001365,-16,-20,41,-111,112,-80
0.003540,10,-14,24,-38,-93,30
0.001394,-35,61,0,-99,34,-49
0.002476,15,4,-21,-56,37,-13
0.002444,23,2,-29,-73,-47,-10
0.002408,0,14,19,-48,4,-34
0.002437,18,-26,7,-67,-48,-52
0.002417,24,31,7,-80,54,-3
0.002435,-2,7,-27,-78,-70,-19
0.002450,8,-31,-58,-72,35,-18
0.001370,25,25,22,-71,-22,-36
0.003534,10,28,12,-7,-56,56
0.002451,-35,-29,-8,-82,17,-55
0.001319,44,27,3,-30,-17,-21
0.004661,-19,3,-6,-99,-6,-32
0.001312,12,59,14,-62,-68,0
0.001341,-21,29,49,-68,0,-97
0.002415,8,-28,0,-71,-3,-71
0.004667,-44,7,-5,-105,-143,-16
0.001321,-31,2,-8,-74,-7,-74
0.001345,0,19,-5,-105,-3,-68
0.002410,6,35,-5,-67,-82,-5
0.003524,-22,-7,-22,-50,2,-25
0.001311,21,3,21,-56,12,-41
0.002457,-29,26,25,-62,-38,-36
0.002434,-38,41,-12,-61,-40,-9
0.002434,5,21,-12,-84,-27,-94
0.003739,-48,-11,-1,-20,2,-26
0.001347,5,16,22,-83,-45,-30
0.001321,-18,31,15,-1,54,-46
0.002520,-9,107,43,-52,2,-4
0.003500,-2,33,4,-22,-47,58
0.002455,-17,-27,6,-54,-16,-2
0.001302,-10,21,1,-44,2,13
0.003518,-31,66,24,-64,-3,-44
0.002396,-22,2,5,-32,-23,2
0.001306,3,23,17,-48,19,-42
0.002434,-20,40,23,-36,48,6
0.003541,20,-57,-3,-96,-27,19
0.001319,4,-11,-20,-59,-3,16
0.003559,-19,-20,-11,-53,-17,21
0.001400,-31,8,36,-54,47,26
0.002410,21,-32,-23,-87,5,46
0.002420,-1,-52,-24,-69,25,67
0.002403,5,-31,7,-66,-9,61
0.002438,24,-17,6,-77,-8,45
0.002428,-55,-8,41,-77,-8,30
0.002430,46,-12,13,-88,10,-13
0.002421,-12,40,14,-90,37,16
0.002422,18,33,19,-64,25,9
0.002424,14,-52,4,-94,45,56
0.002419,-6,-20,1,-122,40,7
0.001315,36,11,-26,-66,2,45
0.004903,-42,-43,8,-84,5,49
0.001328,-15,52,16,-85,44,35
0.001289,-5,12,32,-56,5,19
0.002410,9,-25,-3,-84,69,-19
0.003499,13,11,2,-106,-15,9
0.002434,-30,25,-9,-81,-1,40
0.001331,35,-43,-28,-99,51,-37
0.002425,-16,25,21,-100,16,-34
0.003491,14,27,6,-93,-43,0
0.001323,-52,33,32,-90,67,-36
0.002403,-10,7,38,-70,71,-9
0.004675,23,-42,7,-88,24,7
0.000242,-65,-7,-3,-111,10,0
0.003548,11,12,-12,-115,58,-20
0.001368,-2,-28,-15,-134,13,-16
0.001361,-19,-24,23,-101,29,-42
0.003502,-15,5,-7,-112,59,-41
0.002468,26,-28,-6,-105,44,-9
0.002445,-29,-79,0,-119,64,-9
0.001441,35,-39,-5,-125,24,-22
0.003514,-14,12,-1,-97,34,-7
0.002436,-12,-13,-7,-128,40,-52
0.001309,-44,-2,1,-138,8,11
0.002451,-31,-20,-36,-117,52,-17
0.003523,7,34,10,-113,68,-63
0.001334,-17,25,-19,-134,12,-8
0.003527,-24,7,-1,-108,45,-26
0.002436,-38,31,19,-133,34,-36
0.001332,52,-45,-7,-121,47,-10
0.002419,-3,5,-35,-138,53,28
0.002434,14,21,-10,-116,62,-16
0.003547,-8,-12,-25,-79,29,1
0.001334,-3,-26,24,-151,21,-12
0.002421,5,-8,-1,-144,33,-21
0.002439,-14,-30,-35,-166,13,8
0.002437,18,12,17,-139,41,15
0.002437,-29,-44,-28,-139,-7,14
0.002423,13,-4,-20,-149,91,12
0.001427,-34,20,32,-126,16,-8
0.004633,32,84,29,-134,4,-5
0.001316,11,-3,-1,-133,-6,10
0.001339,30,-11,-39,-168,66,-34
0.002407,8,3,-19,-140,-64,4
0.003562,19,-24,-42,-129,18,-15
0.002428,40,67,13,-159,20,-55
0.001325,3,-45,-13,-119,-4,-9
0.003521,6,49,-6,-129,-34,-38
0.002434,-3,-37,3,-85,54,-23
0.001326,21,29,-1,-106,-55,38
0.002461,12,47,31,-95,-22,-27
0.003518,40,-26,0,-107,10,-37
0.001316,43,-4,11,-77,14,-25
0.003542,10,-81,30,-89,-69,-6
0.001339,-3,-46,-14,-88,-14,-43
0.002424,-36,21,29,-73,-5,-70
0.002414,0,96,23,-77,-62,-30
0.003542,-8,65,45,-50,-47,-43
0.001372,-22,-13,-31,-74,-8,-106
0.002435,3,-81,-45,-92,-36,-14
0.002425,9,-1,-14,-61,-83,30
0.002460,-34,37,15,-90,-28,-45
0.001352,26,-28,-14,-102,-19,-46
0.003536,-27,-81,-19,-66,-57,0
0.002423,57,13,17,-91,-61,-22
0.001339,-12,11,-11,-88,-53,-21
0.004644,5,56,14,-106,-17,-61
0.001333,7,21,-23,-102,-33,-11
0.001317,25,4,-21,-97,-43,21
0.002466,6,26,22,-106,-21,-32
0.002435,-24,36,6,-102,-79,-22
0.003521,-2,29,10,-106,-84,8
0.001317,24,37,-4,-115,4,-24
0.002443,31,-44,-39,-93,-67,-13
0.003510,0,6,-1,-117,-62,-1
0.001324,-20,-5,7,-94,-25,-69
0.002434,12,-10,-18,-79,-68,21
0.002418,-8,8,10,-91,-68,-21
0.002434,-17,30,-27,-90,-17,-3
0.003511,18,18,8,-85,-83,-6
0.001357,-39,42,24,-32,-60,2
0.001401,-16,14,-12,-55,-56,-39
0.003565,-29,27,-13,-47,-43,-5
0.002419,-17,13,13,-79,-84,7
0.002439,-31,-34,-7,-60,-23,11
0.001334,-29,62,29,-64,-56,-17
0.003534,-12,56,48,-56,-15,-54
0.002426,-16,18,20,-49,-75,-8
0.001326,-11,2,26,-41,-23,-40
0.002432,35,-29,-1,-94,-50,-39
0.003554,18,-24,-36,-76,-31,-1
0.001328,-12,10,20,-63,-23,13
0.003517,6,50,53,-47,-10,-13
0.002453,-47,55,62,-49,-35,-24
0.001312,23,60,66,-61,-37,0
0.002419,-54,22,28,-46,11,9
0.002445,2,-10,-4,-79,-24,-15
0.003528,-58,69,43,-66,44,9
0.001323,-20,-39,17,-59,-12,0
0.002441,2,-40,-13,-23,10,-10
0.002434,-9,-10,27,-49,-32,-33
0.003546,-1,23,33,-60,6,0
0.001343,24,18,36,-47,-5,-15
0.002400,0,17,2,-46,10,38
0.001339,26,-44,8,-48,10,-9
0.004578,-5,10,22,-39,16,-9
0.001343,-16,-33,5,-100,-22,-17
0.001301,27,0,8,-72,33,-41
0.003521,-11,24,14,-58,8,-23
0.002393,12,6,27,-75,27,7
0.002420,-27,0,20,-70,24,-35
0.001318,14,32,80,-63,24,-31
0.003535,-36,-21,-10,-43,27,-7
0.002442,-43,-17,-17,-63,29,-30
0.001301,-4,52,40,-67,25,6
0.002449,-33,63,36,-61,46,-49
0.003511,27,-4,24,-44,31,27
0.001324,-29,-47,-6,-83,60,16
0.002419,6,-33,-15,-48,34,17
0.003510,-5,-26,-21,-51,4,2
0.001325,-73,-7,30,-25,78,-49
0.002417,11,12,12,-58,-20,25
0.002425,-40,-2,-40,-70,2,-16
0.002498,-10,72,26,-24,11,11
0.002437,-24,112,34,-37,66,5
0.002431,-16,21,-3,-49,18,5
0.002423,-16,64,6,-32,21,7
0.001345,22,-52,-34,-32,27,-2
0.003534,45,-41,13,-47,6,18
0.002437,-18,-56,-26,-51,-9,22
0.001328,-7,-24,-8,-41,24,-30
0.004691,-26,31,27,-65,0,2
0.001360,-1,41,10,-34,5,-1
0.001338,19,-45,6,-35,34,-3
0.003520,-18,-2,21,-36,17,29
0.001325,-3,-28,25,-29,0,0
0.003538,-27,5,-35,-13,5,20
0.002439,-12,-16,10,-66,-33,-8
0.001323,-27,-45,14,-54,-2,-5
0.002463,-36,-13,25,-60,-4,-3
0.003539,-60,-2,17,-38,-24,-1
0.001337,-34,18,-25,-49,20,-11
0.002440,-17,-12,13,-77,18,-24
0.002645,-49,-7,33,-49,-30,-3
0.002469,16,-26,11,-63,-24,5
0.002459,-28,65,2,-87,17,-19
0.002413,-15,53,5,-75,-13,8
0.003551,-17,49,-14,-60,-11,-26
0.000220,2,-14,-57,-85,22,-15
0.004663,-4,13,-20,-49,11,21
0.001336,-23,24,-29,-57,-34,11
0.001326,-1,-52,-7,-59,12,-63
0.002435,15,12,0,-58,-2,-44
0.003569,5,-27,-16,-61,-26,12
0.001398,-12,12,-1,-55,18,-17
0.002433,-9,35,-11,-82,-21,-56
0.002470,-11,-11,-14,-63,-3,-20
0.002467,-47,-15,-28,-64,-37,13
0.002468,-2,21,-2,-34,16,-19
0.002421,-13,28,8,-76,13,-17
0.002427,22,30,28,-86,-7,4
0.001353,2,-31,-14,-48,-9,3
0.002495,14,4,0,-54,22,-29
0.003546,-4,26,28,-71,-6,-6
0.001344,-29,-5,-13,-41,-32,-25
0.003542,-40,14,21,-48,12,-57
0.001387,-4,15,15,-43,-15,-34
0.002471,-25,51,-25,-50,-56,-14
0.003571,-15,30,0,-115,-2,-3
0.001324,-35,7,8,-90,-21,-28
0.002433,-1,38,9,-86,-26,23
0.003530,-15,39,32,-79,-9,4
0.001330,-3,-24,-9,-71,22,-53
0.002431,14,4,10,-53,-36,39
0.002450,-7,71,24,-90,-16,-4
0.003543,51,-65,-24,-83,4,-10
0.001373,2,-36,-19,-96,12,-17
0.002432,-22,58,55,-82,6,-4
0.002426,-11,51,-18,-90,24,-2
0.002472,-31,-16,-4,-68,18,-2
0.002434,6,14,26,-76,-19,-6
0.002430,-18,-9,10,-98,8,23
0.001300,12,3,7,-97,10,18
0.003510,-44,1,-13,-58,-4,5
0.002450,-26,-37,6,-87,25,-22
0.001316,-10,-18,47,-99,5,2
0.002507,-22,-32,-20,-68,19,15
0.002509,15,-15,-16,-69,4,-16
0.003588,-13,25,20,-104,23,2
0.001342,18,12,38,-73,62,-13
0.002414,8,-37,-15,-62,3,34
0.002426,5,-4,-12,-65,19,50
0.002421,16,50,17,-57,72,-2
0.003608,-33,25,24,-82,25,-17
0.001322,-19,-17,4,-66,27,26
0.001308,-26,-2,7,-73,3,37
0.003526,1,29,14,-84,47,-19
0.002405,30,29,28,-71,29,5
0.001341,-26,-8,7,-53,5,14
0.002412,21,40,51,-65,36,-6
0.003491,12,47,4,-95,31,1
0.002481,16,-44,-1,-90,4,33
0.001557,-5,-83,-12,-90,56,-6
0.002432,13,-60,-14,-94,4,13
0.003524,4,19,1,-65,10,16
0.001295,5,-18,8,-99,5,42
0.002434,43,-7,10,-95,14,-4
0.002464,46,-7,28,-101,7,-2
0.001301,8,13,20,-96,2,11
0.004627,18,-23,6,-72,23,-23
0.001351,17,1,-7,-100,-13,-19
0.001323,12,20,15,-89,-21,44
0.004625,10,6,38,-111,40,-16
0.001318,-8,30,-4,-100,21,18
0.002421,0,3,-19,-100,-23,15
0.002478,-31,-21,-24,-109,48,-46
0.001408,-2,-46,-19,-112,27,-32
0.003526,-6,-41,-2,-93,5,20
0.002445,-37,16,-10,-115,33,-27
0.001330,-21,18,42,-115,21,-2
0.002420,-26,10,20,-125,4,-6
0.003549,-23,21,21,-142,8,-11
0.002437,22,-41,-2,-124,33,-51
0.001377,-17,-33,-24,-151,25,-18
0.002418,11,-8,24,-124,0,-2
0.003552,22,-11,-17,-131,32,-16
0.001312,5,-8,-2,-107,25,-9
0.003568,8,12,-11,-122,9,-14
0.001342,-2,3,-11,-105,65,-39
0.002464,-2,-19,-18,-137,-26,-12
0.002428,9,-2,-2,-132,-37,-6
0.002434,-14,-2,9,-99,-10,-37
0.001346,20,-41,-19,-142,29,-52
0.003540,3,-23,-26,-181,2,-32
0.002419,13,19,35,-128,-24,0
0.002432,-32,8,29,-115,41,-58
0.001326,14,9,10,-138,-26,-31
0.003512,-5,6,-9,-151,3,43
0.002444,28,-6,-16,-131,36,-53
0.002440,13,-28,-8,-124,-2,-11
0.001339,21,23,-36,-154,-70,10
0.003536,34,-76,0,-129,18,-20
0.001322,6,-8,-9,-160,14,-45
0.003524,0,-2,-12,-110,-60,2
0.001342,-20,-8,-20,-122,-42,2
0.002449,-13,-11,-28,-145,7,-30
0.003535,22,10,42,-132,-64,-3
0.001353,-20,-22,-21,-138,-54,-2
0.002487,-3,-28,-8,-141,-8,-36
0.003534,-29,26,-3,-128,22,1
0.001330,-41,42,24,-155,-26,0
0.002429,22,16,31,-144,-49,17
0.002444,16,-44,-11,-124,-25,17
0.003506,-7,-5,7,-154,31,-54
0.001329,16,52,41,-126,-26,-1
0.002454,-3,58,49,-135,-41,35
0.002474,12,-51,-44,-148,20,5
0.001387,-3,-8,3,-124,-38,7
0.003551,24,-33,-18,-161,8,6
0.002465,-43,-11,30,-120,-23,-33
0.001357,26,32,32,-107,-30,-19
0.002451,-10,59,50,-94,-15,-13
0.003478,18,27,2,-107,34,5
0.001343,21,22,-2,-114,23,-7
0.002410,25,5,1,-85,-56,-4
0.002459,58,-27,14,-43,8,19
0.003615,-31,10,-8,-99,53,-38
0.001328,29,-30,-5,-63,-81,-4
0.002461,-3,-21,-7,-58,-2,26
0.002443,30,-48,-10,-95,15,-45
0.002438,1,12,-15,-100,7,-22
0.002424,12,-33,4,-56,4,3
0.002433,-28,18,44,-90,-57,10
0.001312,-27,51,48,-51,87,5
0.004629,-3,-25,-8,-93,-8,-23
0.001326,-17,33,23,-63,-47,15
0.001340,4,-38,17,-25,-22,35
0.003539,-12,39,42,-95,50,-56
0.002424,12,-7,-1,-57,-10,37
0.002416,-11,12,23,-85,7,-7
0.002407,7,36,8,-61,-4,-33
0.001328,18,-2,-26,-29,-43,72
0.003515,-25,-6,1,-75,33,3
0.002425,31,0,13,-101,61,-51
0.001330,-7,-11,20,-83,-48,62
0.002436,-36,6,33,-113,11,-29
0.003528,-19,21,21,-78,19,10
0.002427,2,-61,9,-108,21,-23
0.001339,-6,-41,28,-110,-79,41
0.002427,-10,1,29,-32,-17,18
0.003546,-20,-51,-15,-93,87,-34
0.001316,8,10,34,-72,-14,-6
0.003533,-18,-20,39,-82,-6,40
0.001362,-3,-18,-8,-116,10,-45
0.002410,1,-6,-14,-44,11,2
0.002416,2,56,30,-72,38,29
0.002453,12,-10,-25,-114,-17,-9
0.001314,1,10,-35,-65,18,16
0.003524,14,-1,-3,-45,46,-40
0.002430,-4,-24,-10,-54,-29,1
0.002379,33,-5,6,-40,-22,17
0.001265,8,22,58,-56,3,-48
0.003455,1,-25,-31,-44,3,-6
0.002355,-4,9,24,-82,15,7
0.001290,-45,22,8,-88,-58,-14
0.003473,19,16,24,-53,49,-29
0.002399,-45,-51,-32,-77,71,-83
0.001336,-31,-15,-6,-65,-136,29
0.004551,-59,28,52,-65,6,42
0.001289,-15,9,7,-100,109,-75
0.001282,17,1,-1,-76,-114,61
0.003668,-17,-49,-26,-71,-107,21
0.002370,2,0,-23,-63,70,-59
0.002333,16,1,-17,-65,1,-12
0.002356,-16,-7,-39,-84,-126,46
0.001253,-11,16,-9,-66,5,2
0.003428,39,19,-24,-67,73,-42
0.002339,-17,12,0,-96,-84,38
0.003446,-22,46,5,-79,-47,-8
0.001241,6,-23,3,-81,43,-57
0.002383,18,18,-23,-99,-65,0
0.003422,-25,32,1,-57,0,-13
0.001266,34,-10,-12,-67,42,-63
0.002345,4,-9,-31,-97,-110,32
0.003434,-36,6,-33,-92,-4,-16
0.001251,9,10,5,-70,100,-118
0.002331,-2,20,1,-75,-118,63
0.002405,-21,36,33,-55,-51,45
0.002355,-25,-1,-8,-60,152,-93
0.002353,30,-53,-41,-54,-55,42
0.004570,-81,-18,-19,-73,-167,62
0.001256,-19,3,6,-79,164,-140
0.001238,36,8,16,-68,41,-4
0.002359,-11,-30,-9,-90,-219,75
0.003458,-35,19,2,-26,126,-105
0.001244,40,7,8,-96,131,-97
0.002357,-43,7,2,-92,-186,110
0.003425,-28,21,41,-48,57,-7
0.001266,-12,41,18,-98,169,-125
0.002341,-3,25,-8,-36,-186,47
0.003426,-26,54,27,-21,-28,19
0.001292,-20,65,-5,-97,191,-177
0.002354,46,-6,-17,-64,-74,88
0.003464,-17,-29,-24,-34,-105,29
0.002375,20,-46,-20,-88,125,-138
0.001253,23,57,43,-47,36,-27
0.003423,1,48,27,-22,-71,83
0.002372,46,-63,-36,-71,83,-61
0.001248,7,-5,-16,-54,49,-1
0.004537,-5,-13,23,-44,-112,60
0.001265,-32,21,27,-66,120,-45
0.001247,3,-28,-20,-39,59,4
0.003444,-35,-9,-13,-50,-78,72
0.002477,-5,-36,9,-54,55,-51
0.001274,9,2,48,-47,42,-15
0.003488,-18,-28,-4,-88,-50,50
0.002404,-10,49,49,-87,37,5
0.002376,-9,-19,11,-95,38,16
0.001349,34,-31,1,-84,-43,64
0.003472,-31,-16,2,-81,34,-54
0.002366,18,13,22,-90,80,19
0.001299,-2,6,20,-118,-48,94
0.004596,-5,45,26,-124,20,-32
0.001316,-14,19,25,-74,93,-12
0.001288,14,-69,-5,-97,-48,12
0.003504,14,-10,37,-112,-44,-17
0.002376,-39,29,3,-61,26,-25
0.001272,15,43,19,-102,22,6
0.002410,-39,-47,-46,-77,20,-4
0.003517,32,-19,-16,-72,32,34
0.002383,-22,-48,-41,-99,-17,9
0.001272,26,12,9,-93,-44,-8
0.003454,9,6,-8,-61,15,-20
0.002373,-24,-27,-24,-72,10,0
0.001353,-7,-22,17,-81,115,-38
0.002380,10,33,20,-110,63,24
0.003476,11,-50,-3,-90,-147,55
0.001284,16,-55,6,-91,-56,-58
0.004591,-21,8,22,-73,101,-111
0.001277,9,23,23,-69,-23,-24
0.001261,-9,0,25,-74,32,17
0.003467,7,-49,-18,-120,33,-38
0.002366,-7,25,29,-119,-133,18
0.002404,-11,-29,38,-89,-56,-6
0.001300,-32,-43,-10,-82,72,-92
0.003467,-30,-8,25,-105,-1,4
0.002386,-33,15,-10,-65,-25,29
0.001272,-8,5,20,-95,42,-36
0.002444,-24,-32,7,-125,-59,38
0.003471,-13,-59,4,-98,-102,26
0.001264,8,3,1,-123,35,-85
0.004551,-2,-12,3,-81,-53,26
0.001311,21,-3,31,-69,-16,18
0.001310,-9,-15,-4,-116,30,-28
0.003470,35,-23,23,-145,-87,17
0.002393,-31,-28,-2,-93,-107,32
0.002392,-19,17,28,-107,60,-86
0.001259,8,6,37,-75,-64,2
0.003485,-24,-30,4,-109,-33,-2
0.002412,-4,-25,-9,-108,40,-33
0.001292,15,-39,-6,-75,-13,-26
0.002567,-16,5,15,-72,-109,10
0.003564,3,-15,-4,-83,9,-57
0.001297,-24,42,19,-111,5,-36
0.003476,-17,-12,7,-126,-53,-1
0.001354,-12,34,-8,-133,52,-42
0.002376,14,32,40,-108,-51,23
0.003555,-7,-52,-9,-100,-109,-18
0.001277,-13,19,2,-58,10,-55
0.003451,-5,2,8,-111,16,-72
0.001304,-28,-19,-5,-71,-8,-1
0.002418,-14,-17,-28,-80,-13,-13
0.003501,-2,40,12,-50,-12,-5
0.001268,11,0,36,-65,-81,3
0.002360,-8,6,7,-88,17,-57
0.002368,3,11,11,-102,34,-56
0.002369,-5,17,24,-66,-12,-2
0.003558,-5,-20,-38,-66,-1,-55
0.001287,42,-1,-19,-65,23,-23
0.003460,-34,9,-8,-68,-83,31
0.002362,7,19,-1,-55,39,-56
0.001285,-10,20,29,-58,-7,-69
0.003506,13,26,24,-40,-14,0
0.001300,-26,10,-24,-93,-38,-46
0.002353,4,29,9,-83,7,-41
0.003474,-15,3,-18,-75,-15,-46
0.001292,-3,-26,-41,-97,29,-39
0.002389,-23,41,-1,-100,-14,-41
0.003517,-32,57,31,-65,18,-34
0.001289,-7,34,29,-79,-35,-57
0.003449,-23,62,61,-90,1,5
0.001307,-38,-4,27,-91,-6,-41
0.002387,-6,-8,5,-103,92,-75
0.003529,-3,-29,-23,-40,-58,52
0.001303,-28,-28,-40,-67,36,-49
0.002394,28,0,29,-63,23,5
0.003461,-26,32,24,-81,-78,1
0.001287,-32,16,22,-72,17,-20
0.002589,16,10,9,-70,63,-63
0.002450,5,9,1,-76,-6,43
0.003477,-14,11,26,-48,-31,79
0.001302,21,29,40,-60,26,-75
0.001282,33,46,27,-48,-31,16
0.004558,5,39,45,-55,-11,-7
0.001275,34,9,-15,-56,29,-5
0.001283,-19,1,20,-93,-25,35
0.004560,-2,9,18,-33,-30,27
0.001290,-25,34,-1,-48,10,-64
0.002445,-3,22,1,-83,9,-31
0.003462,10,28,0,-58,-33,-3
0.001274,-40,34,4,-46,-1,27
0.002387,7,3,-19,-71,54,14
0.002468,-5,-18,-38,-63,-108,95
0.003485,-21,-2,1,-58,27,10
0.001257,4,17,-3,-54,-7,9
0.001282,10,-11,-5,-67,-2,-4
0.004559,12,28,0,-48,-56,90
0.001288,-9,3,-13,-53,121,-28
0.001328,10,-12,17,-66,-32,47
0.004568,-17,15,19,-37,-12,9
0.001282,-16,72,-7,-74,0,-18
0.002400,-20,-27,-37,-72,74,-75
0.003478,32,-52,-8,-31,-67,69
0.001293,-37,-28,4,-79,76,-62
0.002369,-20,7,6,-53,39,-13
0.002364,9,3,40,-47,-34,36
0.003452,-20,0,4,-96,-7,0
0.001295,13,-63,-43,-56,76,-54
0.002397,-23,-17,-10,-69,-19,-1
0.003479,-21,-3,59,-67,-51,40
0.001281,-6,-24,2,-72,60,-49
0.002409,-1,8,-11,-72,34,14
0.002439,-3,37,28,-78,-39,-10
0.002378,-36,-7,7,-46,49,-12
0.003465,-1,-4,1,-65,65,-27
0.001291,-6,-27,28,-90,-20,30
0.002412,-45,-5,22,-33,29,18
0.002383,-15,-48,-4,-77,68,-7
0.002370,7,-58,10,-38,18,18
0.003471,0,-9,12,-30,-2,-3
0.001290,13,-36,36,-93,69,-4
0.002378,-10,0,38,-78,21,66
0.003431,-9,8,-14,-51,17,45
0.001266,-12,-56,-15,-87,21,24
0.002336,20,-9,-17,-70,78,6
0.003413,0,-3,8,-88,41,-12
0.001244,-7,72,31,-51,18,40
0.003431,-3,33,14,-68,75,23
0.002337,2,-55,-39,-88,34,13
0.001279,-21,-38,4,-100,-22,-9
0.002329,-4,-63,0,-78,33,38
0.003447,32,16,-29,-57,67,-24
0.002348,-8,-2,-17,-77,-20,1
0.001277,-16,1,5,-91,-10,13
0.003433,-17,44,56,-87,78,-46
0.002345,-9,-5,-30,-80,42,-25
0.001256,-29,23,19,-63,-36,22
0.003433,-23,20,9,-102,34,-47
0.002345,25,-14,-8,-83,40,-62
0.001256,9,35,-16,-101,22,-30
0.004530,12,-22,-29,-82,-22,-10
0.001295,-26,58,-4,-70,75,-49
0.001258,-3,9,-15,-69,-11,-29
0.003444,-43,23,-12,-85,27,-38
0.002348,6,-39,49,-75,-55,-43
0.002337,-18,6,1,-86,41,-66
0.002348,16,1,-52,-79,-53,-22
0.002351,-2,-20,-10,-65,-1,-30
0.003462,-1,-7,-6,-83,48,-94
0.001280,-27,37,10,-44,-50,-9
0.002353,5,-1,-44,-126,-40,-27
0.002362,-18,21,-24,-102,43,-77
0.003436,-3,11,-9,-78,-11,-41
0.001265,-41,36,22,-92,-79,-43
0.003440,-2,29,10,-150,28,-107
0.001270,17,-25,-36,-85,-11,-17
0.002340,-5,46,19,-92,-76,18
0.003422,1,6,-9,-119,35,-28
0.002375,-24,2,28,-130,1,-37
0.001257,11,-21,25,-120,-57,8
0.001265,-49,-22,9,-114,10,-37
0.004572,43,25,-40,-119,-18,-31
0.001292,-19,39,-15,-127,-26,19
0.001267,-17,33,22,-137,-83,-5
0.004548,38,-67,6,-102,-30,4
0.001259,4,-34,-17,-155,-45,5
0.002335,7,12,32,-137,-76,12
0.003429,3,16,-6,-122,-81,35
0.001276,14,-28,-41,-145,-39,-30
0.002363,-19,-16,-5,-126,-112,41
0.003453,-28,1,-15,-160,-38,13
0.002342,4,-19,0,-169,-7,-19
0.001252,-4,27,24,-129,-39,9
0.003444,-17,48,34,-159,-108,75
0.002347,-25,13,22,-134,-63,50
0.001301,-33,25,19,-124,4,-8
0.003421,9,-7,6,-122,-76,39
0.002361,-33,20,-8,-125,-101,-32
0.001255,1,42,-10,-133,-67,20
0.003444,7,-20,21,-105,-98,35
0.002343,-4,21,-8,-112,-62,42
0.001267,-35,45,-5,-161,-2,8
0.003429,-13,-7,3,-119,-91,24
0.002387,-15,27,4,-105,-103,29
0.002360,-12,-19,-5,-138,-3,-79
0.001244,1,-4,0,-64,-68,-12
0.003446,12,-16,1,-125,-44,-6
0.002341,6,13,-4,-122,-5,-50
0.001270,-5,26,-11,-140,-67,-29
0.003433,-6,18,27,-152,-64,-6
0.002355,-6,-10,-42,-109,-66,11
0.001244,0,0,-9,-100,70,-65
0.004541,10,44,13,-49,-68,-19
0.001268,-5,12,-20,-62,-91,-17
0.001258,14,59,16,-114,16,-40
0.004528,-2,39,-29,-85,59,-30
0.002360,-24,23,-14,-108,16,-11
0.002363,-22,51,11,-130,-56,3
0.002354,-9,67,39,-94,-3,-35
0.001271,-13,18,40,-83,95,-67
0.002409,-26,-20,23,-100,-43,-21
0.003426,-6,26,0,-56,9,-22
0.001250,6,4,-7,-77,79,-32
0.002326,-4,32,4,-86,1,-9
0.003464,8,-39,28,-86,-61,45
0.002395,-18,-40,71,-60,65,-66
0.001277,-35,93,28,-6,94,-16
0.003461,13,78,54,-46,52,-8
0.002426,21,-4,-14,-75,52,7
0.001273,-13,8,9,-58,11,-24
0.004544,-17,9,40,-83,24,-6
0.001264,16,10,24,-19,94,1
0.001264,25,41,27,-19,74,6
0.002372,8,-16,9,-47,3,12
0.003476,-14,-26,-7,-23,65,12
0.001278,20,-30,37,-48,49,59
0.002362,-27,13,24,-48,71,2
0.003447,-1,19,14,-21,91,11
0.002382,-25,15,29,-67,57,23
0.001267,-4,7,9,-68,130,20
0.003474,25,-18,-16,-40,91,19
0.002367,-11,24,43,-35,91,51
0.001283,-1,34,50,-2,164,-46
0.002380,-6,51,34,-45,77,59
0.003454,9,10,-4,-42,94,29
0.001300,37,16,15,-51,182,-19
0.003531,29,8,33,-37,56,50
0.002443,5,-13,-2,-58,74,29
0.001288,-5,16,55,-62,216,-62
0.003464,31,-4,55,-21,118,53
0.001269,20,-6,66,-19,100,5
0.003462,8,41,40,-13,185,-43
0.002385,38,36,24,-15,92,-17
0.001282,-25,-2,23,-59,124,-2
0.003465,2,-36,2,-40,177,-28
0.002365,45,-17,22,-43,86,9
0.002370,1,-18,10,-46,140,31
0.002360,42,34,10,-30,160,9
0.002390,36,-30,14,-27,106,44
0.002373,44,-53,5,-46,125,22
0.001332,1,-58,-16,-20,134,25
0.003661,46,-31,-10,-36,78,11
0.003485,24,-20,13,-44,126,-3
0.000180,25,11,10,-25,83,-1
0.002418,24,12,46,-41,116,33
0.003470,28,-25,-8,-44,97,14
0.001282,50,-24,-1,-42,73,33
0.002364,-1,18,21,-29,87,33
0.003489,27,-41,33,-84,86,8
0.002376,20,-86,-3,-54,42,23
0.001281,57,-32,-5,-63,78,52
0.003447,52,-9,7,-68,31,47
0.002382,42,-39,4,-62,62,51
0.001286,-3,-54,-56,-59,62,-2
0.002380,62,-47,-45,-66,68,18
0.003509,45,-27,-29,-68,-10,40
0.001273,54,1,-19,-72,19,12
0.003491,21,-23,-23,-101,66,-1
0.002393,43,-35,-19,-102,-37,54
0.001270,27,-8,0,-75,-20,37
0.003506,10,33,-16,-97,25,-26
0.001286,7,55,-18,-43,-16,-30
0.003519,41,-80,-18,-81,-65,-14
0.002393,15,-42,29,-69,86,-62
0.001287,64,32,54,-97,-19,-26
0.003508,42,9,17,-55,-111,-19
0.002400,16,-14,-24,-73,10,-86
0.001297,46,23,-27,-32,0,-33
0.002385,31,32,2,-70,-120,-10
0.003474,41,35,-7,-63,-14,-50
0.002366,28,-26,6,-27,-59,3
0.001301,3,4,-7,-40,15,-65
0.003469,58,11,1,-89,-38,-71
0.002385,29,-1,-12,-55,-120,-38
0.001279,55,34,11,-80,12,-61
0.004577,55,30,14,-102,-106,-11
0.001298,15,-11,14,-90,-2,-10
0.001281,60,25,8,-122,-88,-24
0.002384,22,-16,-5,-58,-43,-34
0.003479,76,-59,-25,-106,-7,-10
0.001296,40,-27,-38,-153,-48,12
0.002414,69,17,6,-155,-126,-22
0.003474,42,24,16,-122,11,-32
0.002369,9,-8,-16,-163,3,-60
0.001310,73,-29,17,-195,-163,102
0.002370,8,34,-18,-193,-91,5
0.003480,53,25,16,-148,-93,9
0.002386,60,-13,35,-187,-27,29
0.002406,34,-26,43,-213,-175,123
0.002396,18,-13,40,-133,-45,36
0.001293,34,-11,-5,-192,-37,16
0.002411,18,-30,10,-105,-73,123
0.003508,37,19,15,-245,-151,165
0.001296,11,14,35,-367,-13,-171
0.002437,88,20,14,-176,-145,-164
0.002387,-9,11,25,-115,-300,99
0.003515,-20,-44,37,-261,143,16
0.001278,98,9,25,-295,-94,19
0.002382,3,38,33,-183,-233,145
0.002382,-49,0,14,-181,92,-61
0.002411,63,-27,-21,-238,-178,93
0.003455,5,3,8,-189,-201,65
0.001299,52,43,58,-169,113,-119
0.002381,32,-3,34,-165,-200,43
0.003464,6,-26,8,-183,-178,-2
0.001303,19,3,14,-193,95,-142
0.001295,6,100,52,-158,-206,57
0.004565,3,79,52,-160,-243,25
0.001284,0,17,36,-177,96,-103
0.002448,73,-26,14,-163,-16,-31
0.003523,-11,-22,10,-128,-275,195
0.001288,-20,20,37,-151,-99,5
0.002369,11,4,7,-137,46,-101
0.002471,19,-51,-38,-160,-182,-13
0.003563,18,-2,28,-144,-110,-16
0.001282,3,-19,32,-120,27,-26
0.002384,-7,-1,45,-196,-105,34
0.003501,-11,-12,-18,-149,-171,48
0.001292,-43,15,-6,-158,-46,12
0.002415,-19,-3,67,-176,-87,20
0.002379,-2,-19,70,-128,-72,85
0.002353,0,-75,7,-178,58,3
0.002386,-7,-14,15,-195,-147,72
0.002402,-16,37,44,-187,-91,45
0.001318,-46,-21,47,-177,-1,127
0.003488,-71,-94,47,-213,10,118
0.002380,1,-36,53,-243,-25,80
0.002380,-8,11,55,-196,-27,79
0.002385,-3,-52,19,-232,-73,82
0.002413,-7,-95,-3,-278,-9,79
0.003475,-13,-52,23,-249,-45,74
0.002379,0,-20,41,-228,-83,6
0.001337,7,-16,33,-225,-70,49
0.002381,-13,-8,40,-252,-91,6
0.001307,-12,-16,28,-222,-29,-20
0.004581,-60,3,-21,-200,-136,53
0.001309,1,6,-13,-209,-139,14
0.001300,-72,60,52,-212,-79,-46
0.004570,3,52,34,-177,-136,-15
0.001347,-87,-12,33,-168,-155,-57
0.002393,-3,33,10,-123,-84,-192
0.001311,-8,-7,-9,-76,-172,-80
0.003509,-68,-22,17,-137,-158,-108
0.002391,-33,29,9,-123,-80,-133
0.001299,-34,25,35,-99,-171,-89
0.003486,-39,28,-1,-55,-150,-81
0.002411,2,-27,-40,-57,-190,-58
0.001293,-64,29,7,-30,-108,-97
0.004587,-23,33,26,-42,-138,-199
0.001327,-45,74,32,-9,-188,-98
0.001313,-76,32,-22,-35,-143,-108
0.003532,-42,-3,-15,-64,-89,-87
0.002602,-33,-12,-28,-66,-100,-93
0.002429,-47,-20,5,-19,-127,-57
0.001282,-71,20,6,-6,-220,11
0.002406,-42,-29,-43,-108,39,-55
0.003518,-46,6,-34,-114,-59,-88
0.001302,-96,67,14,-73,-277,-19
0.002413,-106,-37,30,-40,-108,-52
0.002535,-47,-35,-34,-103,153,2
0.002441,-89,-23,-16,-129,-227,167
0.003512,-70,-19,-28,-132,-197,4
0.001323,-82,-26,-18,-101,109,-223
0.001295,-19,2,-39,-125,-2,-60
0.004672,-72,-10,-11,-158,-185,179
0.001295,-126,7,-3,-146,104,99
0.002404,-26,15,-34,-135,67,94
0.001369,-63,36,0,-159,-153,46
0.003512,-118,-4,-49,-131,16,-70
0.002391,8,-36,-70,-163,-3,-51
0.001302,-68,-38,-36,-140,-18,9
0.004610,-73,30,-32,-130,52,24
0.001330,-23,33,-31,-138,-21,113
0.001331,-104,36,-7,-190,56,6
0.004596,-6,-16,-66,-65,20,-97
0.001295,-90,13,-41,-58,-65,40
0.001314,-52,-16,-23,-97,74,-32
0.003530,-66,-23,-32,-118,50,-59
0.002391,-82,74,-41,-14,-68,0
0.002405,-67,4,-85,-53,137,-152
0.001297,-39,25,-47,-53,79,-43
0.002464,-70,105,-39,-76,-129,2
0.003534,-104,61,-51,-25,166,-168
0.001296,-1,-7,-83,-28,82,-154
0.002407,-67,-27,-90,-59,25,-120
0.003499,-48,24,-13,-38,109,-88
0.001286,-68,53,-45,-7,109,13
0.003486,-88,81,-47,-65,68,-115
0.001364,-57,5,-92,46,111,-175
0.002450,-66,-31,-92,20,104,-105
0.003532,-89,-4,-79,-28,171,-169
0.001280,-12,-5,-90,9,92,-88
0.003499,-85,42,-24,22,109,-30
0.001313,-66,42,-49,2,195,-90
0.002457,-24,6,-44,0,162,-69
0.002405,-74,63,37,26,143,-89
0.002386,-1,3,-38,70,167,-64
0.002392,-64,36,-3,0,138,-75
0.002377,-66,5,-18,5,138,-69
0.001309,-65,40,-50,45,154,-38
0.004640,-70,17,-58,-22,101,14
0.001311,-57,-44,-59,-7,148,-27
0.001311,-21,35,-62,37,126,26
0.004575,-41,60,-26,21,103,26
0.001282,-74,24,-39,99,213,4
0.002415,-18,0,-43,45,185,146
0.003498,-71,-18,-31,-239,255,23
0.001336,47,-21,-41,-137,-24,-136
0.002403,-100,96,-12,187,224,-74
0.002406,-56,-15,-24,109,223,212
0.003498,-54,-81,-62,-183,156,300
0.001287,62,51,19,-86,165,-13
0.001264,-6,17,4,48,79,149
0.005694,-102,-3,-14,-61,40,75
0.000185,8,-40,-61,-47,352,0
0.001336,22,11,-26,19,-105,297
0.003551,-45,48,-12,-17,17,161
0.002406,-28,-2,-20,-50,178,-117
0.002394,8,-39,-34,-119,114,24
0.002407,-52,-21,-18,-63,-265,226
0.002403,-97,14,24,-77,-27,127
0.002400,-14,-4,-13,-53,289,74
0.002399,-131,3,15,-44,-144,20
0.002398,-40,-9,-50,22,-131,-59
0.002379,19,-57,-66,45,525,-4
0.001300,44,5,-38,-120,-864,627
0.003494,-181,-27,-3,-9,292,-309
0.002400,43,-26,-57,-81,-14,-270
0.001314,-96,-41,-47,-89,-54,-125
0.003499,-32,-11,20,-131,-250,144
0.001284,-79,-67,-43,17,6,329
0.003477,-1,-47,-27,-71,84,260
0.002375,-43,7,1,-147,-249,0
0.001312,-61,26,-4,-72,-67,-395
0.003489,-22,-42,-14,22,-86,-142
0.002458,-101,-27,2,-225,-38,-185
0.002401,-108,10,50,-115,-229,71
0.002409,-45,12,-6,-62,-107,191
0.001315,-34,-30,13,-217,-90,43
0.003524,-126,-10,-11,-206,-182,-271
0.001307,-1,67,-22,-33,-131,-265
0.002585,-77,-16,-16,-45,26,66
0.003559,-11,-91,-53,-312,-458,232
0.001318,-155,42,-4,-150,-59,-217
0.002389,13,101,11,124,86,-466
0.003481,-64,-7,-11,15,-398,18
0.001302,-81,0,24,-134,-308,183
0.002375,0,-4,-24,-223,125,4
0.003500,-60,-2,26,-216,-324,-276
0.002412,-116,56,-19,-54,-118,-431
0.001318,12,-17,-69,-10,-96,-42
0.001317,-2,-119,-42,-304,-373,165
0.004585,-129,10,7,-219,-72,-174
0.002375,-41,36,9,0,-384,-13
0.001314,-125,10,26,-149,-89,-219
0.003488,-58,-17,6,-294,19,-209
0.001336,-7,44,19,-102,-340,123
0.002413,-94,81,7,-62,-214,53
0.002444,-63,-74,-19,-245,-107,-175
0.002352,-15,36,1,-200,-208,-83
0.002434,-42,-5,42,-146,-230,45
0.001317,-128,1,41,-183,-92,-19
0.003481,-75,7,31,-253,-149,-79
0.002406,-34,-10,26,-215,-120,-21
0.001332,-100,29,42,-248,-209,-63
0.004584,-122,20,61,-171,10,-37
0.001307,-46,-31,16,-148,-161,40
0.001308,-94,27,45,-160,-158,114
0.003554,-129,20,45,-199,-21,-79
0.002379,-51,8,47,-199,-162,8
0.002407,-128,-14,18,-202,-6,-113
0.001270,-114,63,66,-173,18,-80
0.003494,-90,76,48,-141,-225,185
0.002411,-90,-7,-3,-173,-61,177
0.001316,-82,53,43,-240,95,-209
0.002386,-92,50,27,-66,-25,-239
0.003476,-49,20,20,-70,-139,29
0.001303,-92,45,69,-201,2,11
0.004700,-52,52,54,-174,62,-59
0.001329,-50,70,47,-22,-49,42
0.001297,-118,3,33,-78,-16,-41
0.003527,-24,-15,17,-170,110,-175
0.001298,-84,22,2,-107,-94,-89
0.003512,-78,54,12,-17,47,-102
0.001329,-89,63,15,-14,19,-13
0.002383,-50,41,5,-71,97,-139
0.003497,-63,63,28,-47,-16,-80
0.001318,-91,98,50,-16,-28,-134
0.002383,-78,96,58,44,39,-293
0.002462,-67,131,52,94,-84,-130
0.002410,-97,99,40,171,81,-84
0.003465,-59,24,71,4,120,73
0.001267,0,-30,38,57,47,48
0.001355,-62,84,39,135,-127,34
0.004646,-124,87,6,193,130,-219
0.002391,-24,53,29,131,15,-437
0.001303,-46,73,36,113,-171,-82
0.003471,-139,98,32,92,97,23
0.001271,-31,32,7,46,95,94
0.002394,-89,44,40,-107,-183,31
0.003487,-146,29,-4,41,1,-297
0.002412,-76,69,33,175,166,-228
0.001336,-29,-40,-34,169,-337,334
0.001316,-141,-14,-4,140,260,-396
0.004618,-84,30,25,252,-123,-325
0.001315,-205,-33,-23,152,70,-338
