timestamp,gyroscope_x,gyroscope_y,gyroscope_z,acc_x,acc_y,acc_z
1646821803.232054,-403,-395,-50,330,4209,1922
0.000290,28,-879,-18,-1695,2313,2534
0.000264,679,95,72,1259,-4040,4833
0.000334,-199,486,48,1381,1747,-159
0.001488,144,203,-61,155,-2179,-14
0.004730,90,296,-30,-15,2172,-2128
0.001404,-325,160,149,673,2977,-889
0.002797,412,-389,71,-2116,-4891,-1473
0.002528,-289,-383,-25,-2539,3013,-3771
0.001365,421,125,22,-67,-2206,3146
0.003610,61,308,32,1219,-3025,5379
0.001402,-1112,87,70,1324,2047,1436
0.003611,215,-9,-30,-269,-128,-3766
0.001411,122,172,25,858,-362,-3338
0.001383,470,-259,64,-328,4775,-2606
0.004694,64,-362,32,-629,-5624,1827
0.002480,-999,335,61,2165,897,-680
0.001356,317,82,18,1750,4967,1688
0.002547,760,-344,-139,-2062,-3678,4350
0.001399,-737,33,-65,-564,1887,-1629
0.003629,269,446,53,-276,-1294,-2533
0.001374,663,259,25,371,2595,-1663
0.002486,39,-271,-24,-634,-3495,4070
0.002531,-827,-111,122,-2050,-936,-255
0.001436,-235,325,112,833,4508,-3810
0.003630,1555,-76,-179,330,-4099,4404
0.002523,-1457,-230,87,-2534,242,-663
0.001439,656,253,101,587,-1247,-1525
0.002469,-958,402,233,2746,1747,-3770
0.002482,620,-213,-61,2126,-274,1894
0.003617,-342,-563,-42,-1599,2907,1146
0.001372,280,-17,104,-35,1595,1703
0.002479,869,318,-32,317,-5129,3758
0.002501,-854,258,-52,-352,1351,986
0.001394,-39,239,-40,13,1346,-1306
0.003572,167,77,20,-1010,-48,-7120
0.002468,-81,57,86,555,-1100,-2713
0.001394,764,-488,-88,-1259,-198,2486
0.002503,-493,-249,-9,-1130,455,5850
0.003632,-145,358,139,-285,-6001,6299
0.001389,-1115,318,70,715,6405,-3850
0.002508,1137,-9,-128,-969,-1625,-4550
0.002514,-116,157,41,1504,-770,-2280
0.002482,-713,1,199,1812,1857,-2016
0.002497,812,-425,-76,981,1857,768
0.002506,-812,-168,-40,1529,-1419,6259
0.002449,473,16,56,644,478,3758
0.001391,471,30,-41,-1111,3012,-1636
0.003674,-20,441,-84,-753,-6938,-847
0.002518,-726,413,14,-355,3922,-7389
0.002537,1177,-134,6,-74,438,-1422
0.001426,-190,-573,89,-2458,-4394,2827
0.002542,-1259,-20,102,-204,629,2834
0.002466,969,65,-62,515,2428,3266
0.002497,-153,-12,67,-1512,-20,-264
0.002472,-76,490,23,646,-3071,-858
0.002491,-544,453,26,1325,1564,-4405
0.001443,297,-74,13,1873,-1777,1006
0.002504,-826,-528,189,-313,102,-2561
0.003586,467,-255,-7,1190,6189,-720
0.001441,341,-192,-152,487,-3135,6900
0.001387,-513,-32,24,-1250,-853,3437
0.003563,70,462,96,709,2478,-1450
0.002502,850,566,-153,1481,-3019,-864
0.002488,-826,114,-5,-776,-25,-2186
0.002507,111,-367,135,-2038,1517,-3173
0.001397,792,-212,85,-1655,-1317,-190
0.003573,-359,160,68,332,521,2881
0.001372,-51,199,21,697,-2424,3722
0.002486,-636,44,45,-307,395,-280
0.002466,-487,43,50,44,969,-3639
0.001433,793,-125,-87,239,4172,-4557
0.004705,578,-175,-92,-1116,-1895,1906
0.001401,-843,71,145,1369,-2709,3729
0.001398,-281,145,260,639,1326,-189
0.003577,-21,43,-38,875,6071,-870
0.001434,1837,-354,-339,-1636,-9447,7112
0.003609,-3589,254,314,-1697,8209,-8733
0.001427,3749,519,-128,1065,-2974,-1072
0.002487,-1701,311,67,923,-1772,1675
0.002488,77,-443,3,-1545,-527,-265
0.002471,588,-320,12,-572,1249,2437
0.003616,-989,221,120,185,-2500,2658
0.001387,783,221,-100,-405,1874,-767
0.001392,-371,136,-2,-1123,-281,-2733
0.004690,45,213,146,1363,-625,-3785
0.001360,-613,37,163,1729,44,-524
0.001419,-192,-342,-61,725,2910,649
0.002484,808,-594,-115,-625,359,2483
0.002483,-589,164,95,1270,-1294,4232
0.003561,905,354,-36,144,1442,558
0.001393,-400,295,-112,683,-2348,1146
0.002494,-553,335,21,-745,693,-3280
0.002485,642,-116,1,-1169,4383,-6115
0.001391,366,-232,-8,-735,-6527,2321
0.004780,-294,-376,-2,-2130,1301,-1176
0.001394,-487,165,133,117,1620,2224
0.001424,1401,385,-7,772,-3854,6594
0.002522,-2159,-135,186,-567,1168,-829
0.003615,1119,186,-145,1592,-2947,-2595
0.001387,-786,277,110,584,2488,-5641
0.002478,410,-123,49,1993,3247,-850
0.001383,349,-506,99,-1511,-2307,-25
0.004713,-894,182,164,1822,-442,4756
0.001389,281,32,-125,569,2006,3570
0.001404,346,-202,-93,-1077,-947,-72
0.003572,-246,469,115,37,2130,-4606
0.001428,578,558,-39,72,-4864,-488
0.002501,-295,-226,-95,-1363,3163,1336
0.002525,18,-457,123,-2177,-2162,155
0.002470,-475,537,147,2087,968,933
0.002484,540,22,-90,749,-1619,1762
0.001457,-155,-533,-98,-3102,-1067,-1311
0.003563,137,263,100,-92,2521,-3696
0.002512,-458,665,207,3653,-2561,1907
0.001386,-261,-162,48,571,2161,-2286
0.002500,-37,-629,25,-1078,2531,-1546
0.002486,800,-109,50,1046,-6016,5771
0.002488,-701,-56,28,420,5307,-231
0.003588,720,37,-156,-588,-1890,2988
0.001368,-866,626,83,48,-205,-1231
0.002478,101,428,56,1038,1835,-3846
0.002528,898,-404,-137,-2136,-3480,-1680
0.002522,-1120,-439,114,-2830,1102,-4212
0.002464,1144,69,44,536,-304,4894
0.001376,-151,196,75,103,-1571,6843
0.001486,-837,214,111,532,1047,2394
0.004698,-21,226,81,-1516,-2006,-4346
0.001393,-496,316,28,-351,9663,-11168
0.002517,2313,-171,-155,1398,-8883,2976
0.002527,-3056,-286,267,862,2174,-1383
0.002488,1312,-104,-38,1897,5126,682
0.002519,855,-222,-15,1533,-5511,10564
0.001389,-1780,-55,95,-1265,501,1307
0.003654,1148,592,-181,993,4280,-4237
0.002494,450,334,-19,-662,-3627,-2732
0.001383,-388,36,83,-904,-2504,-1660
0.002494,289,-275,22,-1547,4073,-3990
0.002485,-296,-119,102,383,-615,2264
0.001384,-39,-64,79,-1044,-2835,3475
0.002604,76,-91,-35,229,2857,3553
0.003627,75,86,-25,-463,-3282,2400
0.002506,-1049,536,138,89,1717,-5506
0.001387,591,367,109,1173,2985,-7888
0.002527,289,-498,-25,1284,1644,1569
0.002584,-392,-909,61,-2817,-5911,2860
0.002550,-912,24,148,835,7769,-285
0.003628,1696,19,-177,343,-4032,7718
0.001386,-965,-45,45,-1898,1188,1163
0.001394,268,706,106,782,-887,-2447
0.002500,252,683,-113,1332,4770,-3787
0.003598,-187,-370,39,-1956,-4365,-290
0.001400,463,-509,53,-2889,59,-3195
0.003578,-389,-6,98,191,2434,1172
0.001481,871,115,-117,1035,-6329,8186
0.003664,-1419,-47,114,-850,4309,-941
0.001438,-90,479,145,1686,1593,-3063
0.001406,1394,186,-167,1639,-1709,-775
0.003621,-1434,-442,55,554,-3960,1054
0.001411,637,-218,-13,-407,4076,-4626
0.002550,341,282,101,2283,460,2487
0.002473,-888,19,192,635,-3706,5469
0.002502,544,-290,-187,-1609,4625,-1810
0.002487,-200,252,-96,-612,69,-781
0.001404,-147,328,135,-409,-3613,-2160
0.003561,90,181,-30,-16,2884,-4375
0.002476,934,-327,-193,-84,431,2352
0.001430,-459,-434,108,-1548,-5528,5976
0.004683,-574,167,152,565,1936,568
0.001359,321,237,-51,14,2797,-885
0.001367,183,41,-70,-666,-3004,939
0.002477,75,27,95,-1102,389,-5433
0.002500,-298,358,197,2523,-1321,-2713
0.003606,-457,-168,110,920,3771,-158
0.001452,363,-645,-47,-852,2729,2284
0.001386,389,-108,50,-553,-3748,3863
0.003587,-228,268,76,1295,-1291,1990
0.001426,214,233,-99,-21,189,-370
0.002462,-82,260,0,321,1191,-1938
0.003561,-30,55,75,-132,154,-1126
0.001410,-149,-291,-1,-1594,-1764,-1852
0.002628,330,-334,-61,-1989,4311,-3325
0.001460,444,-12,-14,-681,-5641,4743
0.003608,-664,406,108,1148,-1001,3461
0.002518,-287,163,113,515,3939,-863
0.001449,442,-25,-48,818,-4663,-582
0.003815,-1100,116,90,1244,735,-3113
0.001407,991,-120,-47,592,6684,-3100
0.002510,580,-350,-13,-339,-5677,3914
0.002489,-2138,129,301,1085,671,-603
0.002520,1793,60,-65,1771,6384,-163
0.001399,149,-162,-171,-643,-5857,6409
0.002546,-990,33,-6,-2376,-321,-2695
0.003615,235,492,69,544,7407,-7757
0.002523,1699,331,-92,336,-10687,3315
0.001406,-1830,-307,117,-1052,4388,745
0.001404,678,-313,70,-2587,1223,1735
0.004710,-221,94,57,196,1135,1078
0.001411,-166,348,40,1584,-3032,-266
0.002545,893,-168,-102,-483,749,-2429
0.002438,-894,5,94,-32,-716,789
0.001362,321,99,-8,2016,-1529,1150
0.003606,-1173,-57,178,1136,6930,-4198
0.001394,1595,-238,-50,505,-3020,3354
0.002493,-632,-309,42,-2453,-799,-178
0.002470,296,226,-28,161,2094,1577
0.001391,533,288,-118,570,-3562,2305
0.004650,-876,270,1,605,-1940,972
0.001402,-209,248,102,-1126,4356,-6538
0.001400,1273,-175,-38,-782,3952,-4382
0.003634,-244,-350,-28,-1691,-10007,4585
0.002492,-979,66,106,-332,3646,-950
0.002470,1416,189,-39,777,564,7383
0.001375,-1008,5,120,192,-3841,4790
0.003611,-863,294,99,1689,589,-5397
0.002492,1333,332,-16,1150,1380,-5353
0.001523,-920,-84,110,-108,4317,-6290
0.002478,1590,-386,43,164,-6356,2681
0.002485,-2092,57,191,1733,1789,2409
0.001379,622,-128,-106,1554,104,7064
0.004703,314,-365,6,-2729,-2714,1279
0.001389,-791,382,132,307,7115,-8211
0.002528,1919,849,-129,2171,-7918,1398
0.001438,-792,-173,-77,-1929,-3316,1424
0.002520,-1391,-548,272,-2659,5017,-5806
0.003591,1843,228,123,1658,-1770,772
0.001443,-1194,200,-6,2411,-1852,6930
0.001407,128,-628,-157,-2973,1490,-284
0.003614,271,176,-53,-1467,426,-1362
0.002493,-846,1108,191,4185,-47,-2679
0.001372,825,54,-77,1827,-43,-2911
0.002491,-795,-876,-7,-2774,465,-980
0.002486,-77,-135,133,146,2155,-483
0.003578,380,-54,76,1178,3877,4174
0.001403,86,-196,-119,-1290,-4540,5990
0.002492,-153,261,-55,-1339,111,-766
0.002547,-397,805,156,1541,2661,-3409
0.002523,1184,217,-22,425,-1558,-1498
0.003585,-795,-378,-63,-1572,354,558
0.001415,-49,-260,37,-3284,-182,-3772
0.001372,740,223,33,787,-1828,3211
0.002476,-872,25,118,1097,166,3844
0.003604,372,-159,-144,-488,2334,-286
0.001381,-691,331,97,-129,-3912,878
0.002500,-722,294,171,1391,3693,-6584
0.002508,2443,-405,-206,744,3640,-1443
0.003633,-1442,-224,101,-1166,-5859,4733
0.001379,-397,215,149,574,1419,1336
0.001387,822,-100,-54,-252,1819,2686
0.003562,-335,31,19,-1060,-51,521
0.001381,167,461,-52,817,-903,-2147
0.003576,-769,499,60,40,501,-5701
0.002509,1316,-101,-55,-765,309,-1488
0.001392,-385,-347,63,-906,-751,2918
0.002481,-137,-23,37,293,-4969,6924
0.002531,-952,165,25,39,1709,173
0.003581,313,112,-3,-895,3266,-2850
0.001381,798,301,7,-89,-4433,-178
0.001441,-968,203,121,1513,469,-3475
0.003582,349,56,60,1866,3144,-2592
0.002486,-599,-274,65,-66,-927,3632
0.001371,-640,-317,81,-790,481,381
0.003580,1569,40,-84,980,1364,-540
0.001440,-484,325,-22,1477,-4012,3340
0.002491,-178,320,-54,-540,1095,-1285
0.002483,-123,417,19,1072,2242,-861
0.002472,-59,1,-24,-422,-2357,-126
0.002544,247,-465,-41,-2418,-1168,-2899
0.001437,-518,-148,138,-1733,4322,-2812
0.003622,1161,171,-18,849,-1973,4050
0.002485,-915,182,47,160,-2653,5708
0.001382,-546,223,46,-149,1088,-344
0.003571,604,194,10,1424,838,-3516
0.001452,-680,246,104,2234,-4519,-507
0.001463,-292,0,29,62,8554,-5463
0.003579,1631,-514,-34,-1077,-3801,3558
0.002488,-2340,105,306,925,-947,1085
0.002495,1307,267,-131,1871,3540,1948
0.001454,-36,-341,-117,-854,377,3496
0.003600,-366,61,36,-1819,-3438,-2449
0.002508,147,809,-20,2284,5318,-4798
0.001411,793,262,-81,1284,-3458,3918
0.002524,-297,-726,29,-3016,-1884,2530
0.003593,-1038,73,232,-842,1410,-1953
0.001397,1010,670,3,2492,-1782,1755
0.002494,-707,-176,41,-797,5217,-1917
0.002522,1002,-266,-52,-2744,-7759,553
0.001403,-1375,627,133,2659,3882,-1612
0.003555,374,81,25,3023,731,-512
0.001400,234,-534,-32,-1668,-455,-1828
0.003603,-1452,-23,196,-167,2736,-1401
0.002536,2438,-31,-152,461,-6786,6232
0.001393,-2198,-113,89,-637,8114,-201
0.002531,1236,291,-77,-330,-4770,5330
0.002487,-567,664,49,1264,3040,-1682
0.001391,-23,177,100,-126,-3842,-2496
0.002503,411,-356,-51,-1747,4028,-5719
0.003588,68,-39,54,-554,-364,-1511
0.002479,450,169,29,1150,-4990,8593
0.001389,-1181,-187,62,-1573,559,2713
0.002464,100,209,18,318,3877,-482
0.003595,783,241,-42,48,-2498,-2261
0.001411,-1618,130,172,1189,-2976,-4231
0.002471,982,48,47,1352,5695,-5736
0.002470,503,-393,-5,720,2860,1143
0.002503,-1015,-236,200,608,-5416,7696
0.002452,651,31,-5,-217,612,3888
0.001375,-611,142,-20,-193,4444,136
0.002492,616,411,-60,-859,-5780,-2366
0.003577,-565,560,30,498,2018,-5102
0.001419,838,-49,-22,-478,725,-1022
0.003602,-197,-523,17,-1801,-1280,-277
0.001391,-488,-143,219,301,-1917,3153
0.001386,-260,132,60,821,2189,2061
0.004693,880,-195,-148,-934,-876,3041
0.001408,-1492,318,136,-1514,-879,-3260
0.002476,598,709,72,1401,5022,-7846
0.001358,905,97,-5,2506,-177,2689
0.003649,-1889,-715,133,-1875,-2351,993
0.002485,1299,-372,-34,-1239,303,239
0.001384,-1067,15,173,1300,6605,-113
0.002507,2030,-16,-172,-64,-8282,8951
0.002533,-2330,295,55,-1608,4670,-2239
0.002527,1512,581,8,1230,-1467,-758
0.004690,-393,293,151,42,-107,-4239
0.000288,-26,-393,-1,-1141,3365,-3470
0.001398,858,-533,-63,-3156,-5809,2937
0.003604,-702,-57,78,-256,-1374,2807
0.001388,-360,490,155,2304,1498,2384
0.002517,735,170,-60,1158,2662,1707
0.002519,-1469,-71,52,-2505,-1637,-1714
0.002483,480,125,13,-568,1527,-7843
0.002470,424,53,19,1838,4948,-3420
0.002487,265,-236,-18,192,-6996,6319
0.001410,-704,-290,70,-641,2265,3690
0.002450,-57,61,-4,328,957,2523
0.003593,411,266,-45,1023,3874,-1405
0.002522,105,313,84,-1189,-1158,-2632
0.001413,-332,346,-69,-1669,-4066,-3463
0.002485,267,108,-23,253,2228,-1228
0.003608,205,-451,129,-1546,3283,-964
0.001405,1106,-132,-45,-274,-6015,7703
0.003608,-2435,230,101,618,-2999,4033
0.001406,882,-13,-65,-464,4927,-3360
0.001447,203,141,88,-1471,2481,-6039
0.003597,969,408,55,1628,-3804,-96
0.002513,-1984,56,121,1698,-2376,572
0.001427,329,-623,-24,5,4128,-951
0.002471,114,-515,67,-321,3421,-9
0.002480,1279,116,-2,926,-5068,4082
0.003572,-1147,295,-27,-23,-3,1608
0.001402,232,206,-169,-360,-1336,36
0.002483,-279,456,72,731,3868,-2195
0.002445,366,-83,99,-5,375,-613
0.002541,113,-520,-29,-2715,-2612,-1191
0.002528,-193,-93,63,-2222,349,-2267
0.002468,550,258,82,977,2150,2526
0.001354,-241,55,78,0,-7310,5682
0.002589,-1124,307,49,1143,5568,-1529
0.004720,900,-39,-75,-154,-3484,-1512
0.000282,-1102,276,221,623,836,-2774
0.002534,963,-126,37,-190,2554,-3253
0.001375,10,-259,-48,302,-3055,2211
0.004768,-1162,11,220,1245,-259,1178
0.001366,766,-72,14,1035,6572,688
0.001412,511,-232,-211,-1526,-5440,4971
0.002500,-1244,412,78,61,-1578,-2289
0.002433,250,462,80,233,5037,-5029
0.003719,1400,-89,-109,-560,-878,1601
0.001409,-467,-227,47,-1432,-6821,3838
0.002526,-1529,146,191,-66,4338,-3013
0.002491,1234,48,-91,1088,2533,-1237
0.001417,487,-209,-118,-2346,-4225,2758
0.003602,-1610,41,131,-1211,1988,-1523
0.002498,1713,311,-33,1068,-3228,1279
0.001404,-2369,231,331,1859,5886,-4277
0.003592,1776,-304,-61,586,-2274,636
0.001427,-904,-306,57,-1062,3010,-76
0.002511,959,-119,-16,448,-3462,4670
0.002493,-203,-24,-59,-392,3277,2147
0.001389,-455,471,-42,692,-2817,3568
0.002489,491,506,-25,588,2535,-1989
0.003644,-482,-126,142,-1924,1221,-7195
0.001399,1049,32,-34,-291,-2939,-3046
0.002513,-660,-261,81,-1473,358,1315
0.002730,199,14,-1,-80,-795,6380
0.001423,163,-61,38,-1020,-3967,4937
0.003644,-1836,446,182,1777,4499,-613
0.002515,1941,-194,-195,-154,-4633,-2974
0.002506,-1689,78,168,900,3074,-6009
0.001394,1355,-33,72,1634,3159,-2306
0.003582,19,-316,-16,803,-3568,1929
0.003591,-1318,10,116,1654,-621,5130
0.000289,1200,-335,-145,55,-1315,5258
0.002516,-854,-231,-97,-1448,1966,-1946
0.002496,1150,458,-56,733,1765,-3712
0.002502,-922,424,67,-459,-2899,-2637
0.002552,1123,-147,-116,-485,-2293,728
0.001425,-849,-769,124,-2690,704,-2055
0.002565,-169,79,110,763,915,330
0.003637,1072,-76,-166,744,-2411,5954
0.001425,-1754,-390,59,-2527,3334,-316
0.002508,1600,238,-47,-1608,-1794,-1256
0.002519,-1408,666,234,2745,-232,-4415
0.002456,17,-47,12,2484,394,-659
0.002529,277,-1043,-78,-1861,5663,-4394
0.001394,121,-264,54,45,-4896,4833
0.002478,-348,116,64,1881,-999,5738
0.003590,233,-402,-119,-1048,5322,615
0.001439,329,463,-126,315,-4110,2357
0.003595,-618,570,87,819,2506,-5256
0.001375,558,-28,44,-216,-3415,-900
0.002496,188,-677,-64,-3048,4703,-5320
0.002511,217,-311,18,-1958,-1734,2259
0.002486,51,443,90,1737,-5888,8232
0.002463,-492,-266,-2,288,3501,268
0.001374,-278,-42,50,-425,186,-2154
0.002507,130,418,39,1196,-2344,-2818
0.003591,-459,-57,74,1976,4120,-3102
0.001408,1039,-711,-57,-2393,1135,-2323
0.002521,-242,21,27,1351,-2478,4347
0.002503,-1002,147,126,1368,-2230,4529
0.001436,1154,-417,-24,-1860,3675,-1005
0.003585,-18,-51,-11,-249,-1597,2420
0.002464,-1274,587,70,-9,942,-6562
0.001379,1340,492,-47,632,4087,-6540
0.004730,824,-494,47,-595,-6810,6262
0.001460,-1412,-688,154,-2934,-2287,550
0.002494,253,298,53,928,8272,-1232
0.001375,638,327,18,1895,-8054,7146
0.002500,-728,-191,35,-1527,1114,-1377
0.003599,-522,197,131,-1487,3836,-6918
0.001390,1390,496,39,3111,-3161,-2181
0.002493,-1315,-114,189,1907,2462,197
0.001374,-18,-601,69,-913,-783,2974
0.003533,458,-332,8,209,1842,9
0.002474,-183,244,119,1868,-686,759
0.001381,1204,216,-171,104,-137,1900
0.002507,-1235,60,39,-807,1583,-988
0.002509,373,390,62,360,-5545,736
0.001541,-345,-36,102,-1758,6442,-7425
0.004735,1219,-445,-68,-1342,-530,1002
0.001417,-97,-251,46,-3114,-8161,3410
0.001426,-1462,446,171,1457,6184,-1490
0.002661,1873,148,-117,2224,-3853,5965
0.003700,-1712,-183,83,-919,2479,-2378
0.002493,89,180,46,-520,906,-6065
0.001400,1145,368,-76,1943,1632,-1203
0.002494,-1116,-329,122,-771,202,617
0.002638,864,-269,50,-951,-2462,2498
0.001412,-1021,334,168,2063,-779,3740
0.003621,420,-95,-132,977,1298,185
0.002494,123,-45,-103,-871,2339,-5195
0.001369,57,602,66,1920,-1087,-552
0.002497,374,75,-102,-1520,-3544,2259
0.002502,-409,-343,-9,-1058,2253,568
0.001445,263,53,108,243,-1618,1901
0.003586,-460,312,90,467,-125,-494
0.002480,307,-50,-71,445,2452,-3099
0.002593,143,-149,-85,-574,-2858,83
0.002465,-28,132,-87,5,872,1643
0.002501,-433,50,88,924,26,-259
0.002531,-170,-5,151,720,-1728,-2437
0.001377,-86,-38,26,1445,6291,-2272
0.003594,971,-316,-88,-72,-3615,3455
0.001405,-106,-87,-56,-235,-716,5069
0.001450,-850,320,11,-167,-221,1151
0.003593,810,461,-111,809,1077,-803
0.002499,-464,197,67,-441,1822,-4181
0.001484,733,-210,-17,-1472,-4827,-2932
0.002489,-793,-50,-6,-796,3345,-3154
0.003609,993,-338,-91,-721,-1024,5160
0.002568,-397,-25,73,-864,-3275,7088
0.001385,-613,536,113,1385,2509,2415
0.002464,78,176,19,-1226,297,-4397
0.002515,-606,45,-11,-1982,4355,-11193
0.002504,1481,280,-86,3598,-5769,2599
0.002489,-1587,-488,147,992,1597,2220
0.002494,942,-487,-125,1015,3061,1506
0.001388,-324,109,97,1525,-1624,5862
0.002541,-352,227,-47,344,2694,1568
0.003608,1096,3,-240,-1725,-2772,-1825
0.001390,-337,428,84,-56,-2408,-3424
0.002484,-154,460,54,253,4185,-5412
0.001405,716,-340,-139,-508,-1724,1560
0.003621,-806,-559,108,-1882,-3360,1574
0.002513,69,-30,170,-524,5423,-1844
0.001387,858,156,-85,-110,-6529,8203
0.002489,-1945,188,63,-325,2420,-164
0.002521,1082,221,-81,743,2284,-3776
0.002469,-301,353,187,746,4,-4713
0.002480,196,-232,-23,704,2848,-994
0.002495,275,-576,-56,-887,-5541,4168
0.002485,-1240,27,98,1116,6054,-2117
0.002506,1608,143,-126,1728,-3538,4555
0.002472,-784,-55,61,-1392,-582,739
0.002484,573,192,-66,-404,2039,-1252
0.001400,-55,435,-100,-273,523,-966
0.002538,-436,94,64,-1477,-1111,-3281
0.003582,817,-223,92,-849,-2230,-1172
0.001369,-288,-380,28,-69,1514,603
0.002487,616,-114,-91,592,-2738,5627
0.002487,-1004,256,104,725,-377,3504
0.002476,-722,256,89,749,3930,-4809
0.002502,1278,42,-102,-1128,3900,-6053
0.002473,-107,53,65,1776,-6259,4620
0.002535,-292,-301,193,-39,-940,1499
0.001377,-57,45,105,1616,8947,-2248
0.003572,838,81,-2,1095,-7994,5866
0.002502,-1059,-60,91,-1389,4512,-2227
0.001307,840,36,-81,-376,1,-99
0.003579,8,159,-25,-1817,173,-3523
0.002489,-485,365,135,339,805,-859
0.001366,1236,-41,59,73,-5871,2924
0.002467,-942,-417,134,45,3884,854
0.002500,284,49,26,501,-1921,3031
0.001366,-12,304,-17,-55,3076,-935
0.003574,-315,188,77,-383,-2809,497
0.002505,416,138,48,-566,-1307,-3534
0.002491,-654,186,133,1396,5809,-4215
0.001379,869,-105,70,368,-5222,3856
0.002490,-1243,-324,138,38,6083,-1492
0.003581,1355,62,-35,2139,-1585,1571
0.001422,225,-32,-91,-599,-3629,3170
0.003593,-1503,366,78,-204,1558,-2159
0.001382,2208,315,-104,1874,127,2013
0.001399,-1697,-63,150,-1182,2575,-107
0.003607,732,-238,-37,-2474,-3065,-2119
0.002483,-62,-46,90,-1254,3786,-6143
0.002483,373,141,103,1581,-2784,2262
0.002480,579,-91,-34,-280,-3819,6137
0.001383,-1374,42,58,-580,3311,3449
0.003607,486,327,-4,881,-1294,-1030
0.001377,-325,189,106,-52,832,-5420
0.001406,459,-16,3,326,-297,-2687
0.004651,564,-293,16,-469,92,-586
0.001403,-1138,81,235,2127,-608,3398
0.002469,327,-48,11,1383,3124,2095
0.002483,229,-69,-78,-490,-2468,3178
0.001366,-8,-2,-47,-457,-677,-1164
0.003604,-332,233,35,-492,5304,-6920
0.002524,1969,492,-116,451,-6026,4128
0.002498,-1576,-71,130,-1405,-86,2941
0.001402,18,-180,142,-1961,26,-1183
0.001396,267,278,92,1384,2465,-2958
0.004723,471,14,-96,1223,-2996,2310
0.001403,-429,-263,-57,-2393,375,-1565
0.001363,245,258,60,484,-2360,289
0.003627,-644,321,94,3543,640,-450
0.002516,-130,-286,62,409,4254,-2471
0.002572,833,-213,-4,-527,-1295,644
0.001384,-320,-28,88,646,-653,1520
0.002496,760,-74,-116,562,-2340,2973
0.002520,-309,53,-124,-482,545,1197
0.001458,-319,578,27,1803,-1859,2101
0.003619,53,129,95,-1608,4001,-6321
0.002481,470,-121,34,-972,366,-4321
0.001386,575,-25,-68,-144,-6029,2573
0.003653,-937,-198,54,-925,2562,571
0.001406,599,83,32,145,-3409,5981
0.002551,-702,298,70,1550,1274,2594
0.003661,-348,-128,-32,-1194,2467,-4443
0.001455,1142,143,-64,-1000,-1719,-5305
0.002514,-1186,388,239,2373,-1389,-1333
0.003607,1107,-309,-18,967,2723,911
0.001394,-1036,-357,118,418,1173,2466
0.002491,771,285,2,1787,-6224,5664
0.001386,-579,142,-29,-192,3876,-466
0.003643,581,-142,-190,-515,1626,-1543
0.002511,760,253,-49,-1247,-1775,-2814
0.001394,-876,676,166,222,-2116,-1976
0.002477,499,-197,7,-1120,-394,-118
0.002511,-486,-456,93,-685,2592,-263
0.001836,804,49,-30,639,-620,3729
0.002508,-506,-26,-16,-850,-3268,3313
0.002875,-800,160,69,-685,-253,-879
0.002481,655,294,31,98,7125,-7522
0.002528,899,409,-2,3151,-7048,3724
0.001406,-1957,-362,162,-123,87,-1861
0.003575,4,-524,42,-648,7098,-4366
0.001394,1704,-67,-60,1137,-1171,4440
0.002555,-654,-30,-19,139,-4726,6034
0.003595,-765,184,7,-765,1663,557
0.001410,1353,297,-104,-1307,1651,-1952
0.002491,-1197,494,92,850,-1387,-364
0.001434,714,-131,-60,-278,-683,-3277
0.002732,-48,-567,11,-2900,1854,-3194
0.003546,494,38,122,115,-5710,5078
0.001370,-785,189,93,1401,3514,798
0.002448,-61,173,-27,1906,3,2265
0.002559,87,-125,-43,-1868,-1433,-1615
0.001444,-1216,45,142,-2193,4818,-6560
0.003577,2179,92,-121,1486,-2514,968
0.002529,-1768,-206,214,1010,-1756,2292
0.002488,583,20,55,1120,1952,777
0.002479,393,-173,53,-131,2354,3618
0.001408,-744,-41,41,-895,-3437,4139
0.003614,678,174,-160,-617,4930,-5179
0.002542,-252,429,49,-881,-4125,-3315
0.001374,-56,479,147,1199,694,-1894
0.003593,519,-309,-26,-359,633,-125
0.001384,-36,-281,-14,-178,-779,4455
0.002485,-556,-41,80,-883,-3872,3097
0.001374,-428,228,64,-548,2385,-982
0.002516,901,232,-114,-911,3249,-3616
0.003569,115,184,69,579,-5501,1408
0.001391,-1360,114,280,564,2013,-4483
0.002501,524,-108,11,965,1968,-862
0.002513,-143,-308,55,-28,-1307,1935
0.001382,86,-287,18,931,1411,2535
0.004673,556,32,-16,-324,-3050,4286
0.001405,-731,435,20,-695,1033,-1762
0.001359,370,659,-8,2309,-292,259
0.003584,-385,-70,51,-514,2184,-3543
0.002493,-12,-356,60,-1254,1104,-4205
0.002523,919,-300,-77,-1462,-2265,1758
0.001412,-956,-159,27,-1026,2350,1911
0.002537,1007,151,-54,291,-3192,5014
0.002488,-996,328,74,921,-508,2906
0.001434,-658,176,25,-635,-1348,-2613
0.003595,762,75,-11,-2317,7836,-10551
0.002477,295,110,79,1139,-2057,1528
0.001383,-425,-128,59,-40,-7390,3192
0.003657,-1024,-34,202,679,9409,-2681
0.002494,1430,-185,-91,302,-3822,5521
0.001383,-1090,18,-45,-175,2449,1067
0.003585,753,264,-16,-118,-4346,-478
0.001434,-512,222,97,-1011,6001,-5625
0.002476,579,187,-79,267,-5414,4375
0.002463,134,-164,11,-680,116,1928
0.002478,-994,-55,298,120,3035,-1151
0.002523,1290,272,-46,141,-3892,2019
0.002521,-1271,-77,-4,-1421,4290,-3695
0.003572,943,33,-24,-609,-4479,893
0.001392,-346,234,122,-170,-426,-1247
0.001390,-1244,299,187,2771,3917,-267
0.002474,763,-285,-27,584,98,156
0.002499,-575,-374,69,-390,1132,-1443
0.001459,1011,-47,-32,1040,-391,2406
0.003672,-208,-94,-49,-484,-976,4117
0.002474,-450,262,-59,200,817,3050
0.002465,115,529,7,811,2709,-1186
0.001441,217,188,102,-1560,-2301,-4316
0.003635,215,-338,-21,-1516,-150,-4678
0.002489,242,-210,-84,-738,-1851,610
0.001383,421,-17,-58,194,591,4568
0.003594,-694,175,100,199,-3532,5405
0.002526,-861,207,122,465,726,-1204
0.001392,662,8,-112,-469,3360,-6699
0.002508,-190,79,34,-144,-4943,-2702
0.002491,142,-114,77,-76,5682,-3519
0.001395,-233,-242,61,2151,-3660,3369
0.002560,-333,14,68,3050,-440,5747
0.003597,-231,-274,32,-240,6735,1885
0.002519,1403,-62,-194,-1803,-3822,4445
0.001405,-1095,484,45,-849,-3340,-4697
0.001386,128,818,106,1904,2282,-7875
0.004679,1233,53,-88,72,1301,-609
0.001402,-845,-786,6,-2730,-2200,3472
0.002515,-714,-229,149,-1612,-2765,-153
0.002469,1031,304,-3,2127,4079,121
0.001383,7,-165,-29,-127,-4397,5481
0.003588,-876,48,80,-1164,208,-2321
0.002502,-237,666,216,1102,6575,-7441
0.001392,1389,278,10,3810,-3960,3328
0.002524,-1778,-825,143,-2808,-217,-1639
0.001426,445,-337,-10,84,4532,-1301
0.004756,685,171,15,1691,-1294,4256
0.001404,-131,-100,-105,351,-1792,5156
0.001390,-782,170,-30,-237,457,-1379
0.002478,767,514,-15,513,1391,-2752
0.003609,-681,199,67,-474,2458,-3350
0.002524,1038,-559,-119,-2165,-4287,-304
0.001396,-624,-229,103,-2072,592,1087
0.002516,295,121,145,826,-2590,4467
0.002521,-3,39,-5,-380,-1125,1972
0.001479,-1288,192,8,960,5767,-2303
0.003577,1531,6,-121,-684,-7398,1429
0.002571,-1761,216,203,26,5541,-5865
0.001389,1808,-207,-64,321,-74,-1026
0.002474,-719,20,38,2807,-4025,3328
0.003600,-869,48,57,1271,3464,480
0.001380,1375,-307,6,-1185,185,2330
0.002485,-376,-62,-1,-476,-1428,1902
0.002496,-187,291,-70,-398,1477,-2875
0.002459,-124,525,-5,11,-19,-4462
0.002454,692,125,39,301,-1535,271
0.002485,-167,-515,25,-1797,-807,1203
0.002477,-316,-134,8,-13,1802,715
0.001381,744,178,14,445,-4499,5718
0.002500,-1443,103,162,-782,4086,-1226
0.003609,1428,126,-73,-1117,-3393,-2267
0.001392,-881,480,111,2356,2606,-3802
0.003585,-259,-20,125,1595,333,-1576
0.002460,174,-463,53,-622,-70,-17
0.001386,-557,-368,3,367,1600,2163
0.002502,1289,-144,-88,1413,-1209,4072
0.002450,-554,93,10,-95,591,2245
0.002536,178,512,5,1239,-3414,1833
0.002491,-582,306,-27,287,5717,-4704
0.001328,702,-128,0,-1596,1287,-3386
0.004653,203,-259,103,-3120,-4136,-2290
0.000203,-195,-149,88,-1257,126,964
0.002366,187,14,20,-611,-120,4940
0.003489,-252,-24,-32,255,-1657,4438
0.001308,-933,376,179,1111,1022,-1594
0.003463,432,159,92,288,1003,-5396
0.001306,-415,-82,12,-1405,4724,-6015
0.002394,1352,-11,-62,1392,-3630,4489
0.003489,-1976,-187,229,-319,-1389,924
0.001293,634,55,119,1188,3397,-1280
0.003494,530,-63,-80,1439,859,6032
0.002400,-22,-351,-210,-1843,-797,2229
0.001307,-947,508,153,-959,3207,-7916
0.002383,1473,906,74,2617,-5085,572
0.003479,-510,-209,-79,-1210,1949,1081
0.001361,170,-628,-95,-2864,-1503,1200
0.002373,-431,231,185,894,651,323
0.003480,159,169,59,1221,-1467,696
0.002413,326,-326,-179,-1968,1490,-2152
0.001307,-249,116,49,-905,-2179,-751
0.001308,-864,615,247,3816,1362,64
0.004592,148,-164,52,1458,3090,-2112
0.001294,493,-694,-74,-1440,566,1304
0.002383,-495,-105,63,-7,-1489,1712
0.003463,902,189,-17,1234,536,3039
0.001319,-323,6,11,-1422,-751,2340
0.002391,-53,377,-96,466,-291,874
0.003492,-368,389,54,-499,3060,-5056
0.001283,768,-5,7,425,-1667,-4443
0.002399,144,-434,-36,-1754,-3436,857
0.003477,-729,-333,-6,-2344,5556,625
0.002418,1505,322,-22,286,-6659,7536
0.001314,-1814,582,203,2501,-2045,4249
0.001297,-582,8,63,-1843,6881,-7719
0.004579,1487,-44,-76,-2022,2578,-7338
0.002415,-756,346,186,2551,-7340,2092
0.002401,-467,-289,105,1561,3068,-1110
0.001296,522,-434,-12,-154,4907,903
0.002376,269,65,65,2319,-5152,9758
0.003473,-733,64,-26,-408,1856,2030
0.001653,625,73,-155,-324,1549,-3033
0.002442,339,437,-3,-634,-3394,-4387
0.002429,-613,489,42,1312,243,-3702
0.001353,935,-399,-70,-2030,-536,-1266
0.004645,-1048,-480,119,-1024,2617,600
0.001332,522,112,94,-228,-5209,5101
0.001338,-148,-77,-40,-153,3898,2487
0.002452,-310,-155,-13,-768,-4238,2627
0.003529,-216,489,81,-450,2317,-6953
0.002458,-402,696,231,2466,4810,-7234
0.001360,1516,-354,-96,1724,-5770,4785
0.002473,-2278,-1045,149,-3325,3489,-3763
0.002428,1021,104,84,2631,2317,3156
0.002434,451,-52,-120,440,-3717,6992
0.001377,-1017,-104,-73,-1035,2900,149
0.003535,1141,606,30,-327,-1246,-2070
0.002426,-536,705,80,1237,673,-2957
0.002444,294,-260,-81,-742,-2352,-341
0.002461,-386,-731,16,-3971,3475,-5529
0.002414,787,180,111,23,-1174,3536
0.002488,101,267,7,1177,-5672,7499
0.001440,-1094,-61,32,-1100,2836,-1178
0.003503,-146,369,113,683,3034,-2450
0.002429,1020,313,22,1526,-6715,2111
0.001381,-1945,-388,115,-359,6339,-6917
0.003543,2564,-160,-130,669,1657,-1575
0.001353,-1098,146,169,2074,-5856,6337
0.002433,-1335,-61,142,-404,2689,965
0.003550,2549,-299,-195,-1369,-494,2629
0.001340,-1889,311,131,622,1529,-991
0.003535,594,475,-92,-413,-4471,-3605
0.002445,-219,232,-29,-850,8807,-7757
0.001348,1789,-260,33,-310,-7822,5742
0.002461,-1441,-400,146,-1463,-2982,2525
0.002421,-778,158,20,1328,6152,794
0.003547,1666,197,-158,-491,-2491,3101
0.001379,-1405,-20,111,-1108,1380,-1678
0.001356,775,233,99,-178,-6670,-1527
0.004617,-715,378,78,1610,6602,-7409
0.001318,269,-218,2,1387,249,2777
0.001348,-680,-608,98,-1265,-2352,3683
0.002431,295,-152,86,484,3727,295
0.003543,791,123,-38,916,-4669,3931
0.002443,-442,268,-61,-674,1531,-783
0.001370,-426,485,78,527,1737,-1694
0.002594,850,295,-8,712,-4651,1376
0.003544,-1146,-409,62,-2521,4821,-5410
0.001415,1392,-394,-95,-1372,-2124,-551
0.002440,-180,36,77,-571,-4069,3157
0.003483,-1234,351,234,869,3492,1069
0.001328,1931,8,-160,628,-1160,4367
0.002446,-2480,119,140,-1188,-644,-1192
0.001359,1053,207,-24,-100,3718,-7213
0.003527,963,39,-54,879,-1196,329
0.002437,-1669,-146,149,442,-2213,507
0.001354,964,-216,46,-951,4759,-3362
0.003600,-358,272,92,1778,-1022,6504
0.002501,453,-167,-42,-478,-7352,5205
0.001360,-1557,-55,166,-1194,9687,-7253
0.002441,1829,595,-36,1082,-2123,-914
0.002431,-255,75,-67,-374,-1577,2772
0.004730,-631,-388,39,-2145,-2991,1392
0.001337,479,178,110,-276,4345,-2461
0.001343,-282,296,30,1914,-3140,6164
0.002466,2,-307,-19,-1861,-284,-2491
0.002472,261,-5,-12,-760,1716,-4064
0.002438,23,566,102,1351,-2158,2278
0.002498,-629,-84,131,615,1778,-2439
0.001332,266,-301,23,-624,-1499,116
0.004649,-775,83,132,1885,3605,-1302
0.001344,1572,-130,-93,625,-3084,4568
0.001337,-787,-333,-7,-2043,5428,792
0.002432,679,375,-69,-399,-7401,3312
0.003553,-851,784,101,2139,751,-1362
0.002447,-396,73,111,-146,6440,-6359
0.001378,2228,-371,-173,-1993,-8359,2148
0.002572,-2793,-104,201,-2060,3861,-4986
0.003558,1947,176,-54,1277,-3581,4843
0.001337,-205,-61,-18,-860,2461,3824
0.001324,-823,199,91,632,-452,3483
0.003580,441,205,-2,-725,-6838,-1465
0.002466,-2557,344,228,168,12533,-15734
0.002484,4598,-97,-267,1961,-6082,3619
0.001366,-2901,-612,252,-1065,-2286,2189
0.002553,-616,-139,76,2018,4097,1066
0.003591,2105,-30,-165,1390,-3768,6864
0.001334,-1801,55,164,266,2804,3047
0.003552,1416,-12,-117,-828,-731,-3002
0.002475,-639,557,-57,-1173,2157,-7517
0.001328,902,494,-38,650,-6289,325
0.002447,-377,-535,113,-2711,3064,-2373
0.002562,-778,-349,203,-950,286,-115
0.002456,916,161,-14,1692,-3616,4786
0.002438,-1231,-131,82,-1235,57,4073
0.002441,323,-35,-33,-1357,3546,-2162
0.004654,377,505,86,1148,-789,-2699
0.000252,-986,674,194,3814,-2136,-3633
0.001340,751,-591,-43,-155,5678,-3895
0.003525,-11,-760,0,-1617,-4026,5084
0.001352,-979,175,119,1551,2368,191
0.003537,1506,95,-185,473,-2507,5647
0.001332,-1325,90,36,-1339,1673,307
0.002425,1002,403,-13,61,-153,-3419
0.003549,-426,632,39,1501,2545,-3568
0.001338,202,-179,46,-536,-3348,-893
0.002440,207,-786,-21,-4026,64,-406
0.002428,-355,-119,46,-75,1368,2270
0.001352,1054,390,-7,2124,-4526,6876
0.004633,-1557,249,141,427,4313,-668
0.001379,111,140,38,-567,-1904,-3406
0.001338,-174,218,60,-273,5417,-9028
0.004657,1122,-154,-96,2157,572,1931
0.001379,-257,-596,-18,-2166,-10034,6522
0.002448,-1696,186,225,1302,9383,-3314
0.001405,2143,130,-76,1448,-2225,5718
0.003535,-990,-63,-77,-1296,1488,159
0.002455,487,135,-85,-1042,-3116,-612
0.001352,-842,436,113,-1046,-320,-5884
0.002502,402,314,7,1052,3743,-3966
0.003558,1314,-415,-105,-1183,-2238,3010
0.001360,-1169,-270,127,-132,-2349,6557
0.002493,-325,302,69,700,-1046,3721
0.002420,127,110,-68,-695,4509,-2756
0.002436,-266,256,-1,-249,-280,-4167
0.002427,1403,293,14,922,-5432,-803
0.001347,-2176,32,244,1949,4268,-1764
0.002624,821,-442,-128,-659,182,979
0.003513,-579,-309,33,2,3444,918
0.001332,797,-105,26,648,-3486,3915
0.005690,327,63,-78,-840,-126,184
0.000252,-539,351,-41,-172,149,1137
0.001314,226,512,14,932,-1777,643
0.003540,-406,96,53,402,3327,-3060
0.001341,515,-334,-6,-1562,-439,-2408
0.003538,-17,-248,-1,-2693,100,-3428
0.002411,443,49,13,279,-3174,3898
0.001361,-608,235,81,984,-2279,5615
0.002403,-183,55,15,375,4778,191
0.003536,67,33,-17,-1610,-1917,-1309
0.002440,-797,339,125,-372,4440,-8153
0.001341,2082,-71,-111,835,-3275,1278
0.001356,-2054,-208,183,-702,-2088,1492
0.004596,384,69,156,1971,3387,-548
0.001336,426,-31,-1,1529,3366,3700
0.002447,-166,-157,-127,-879,-4913,4299
0.002429,-127,77,-38,-693,2592,-3122
0.002419,-139,490,81,157,2914,-4051
0.002456,1669,137,-121,-599,-3772,1965
0.001364,-1781,-109,149,-161,-1329,1495
0.003511,662,-30,47,-547,1069,-728
0.002425,-521,8,84,-1107,5021,-2111
0.001328,826,126,-79,617,-8500,4629
0.004630,-883,-71,3,-759,3776,-2339
0.001338,109,284,92,-191,-1940,-1264
0.001322,30,237,46,2691,2384,-1487
0.002423,-601,-428,108,580,128,-129
0.003530,632,-332,-35,-882,1202,-1360
0.001307,144,42,2,666,-2808,4347
0.002416,-81,-17,-24,591,-542,5160
0.002431,90,-85,-55,-1994,1529,-2327
0.003510,-263,931,48,2780,313,-403
0.001342,272,121,16,-1311,-3390,-3005
0.002448,-781,-543,36,-1614,6334,-8457
0.003539,1819,-184,-45,-763,-4869,2539
0.002434,-1100,83,110,-58,-3492,8196
0.001340,-453,-105,76,-1335,1255,4572
0.003511,370,224,36,-564,1548,-1741
0.001344,-415,657,140,2051,-4054,-670
0.002654,-519,97,138,322,1793,-7262
0.002415,983,-460,-19,-1263,7901,-8157
0.001296,127,40,142,3086,-9626,7080
0.003519,-1737,-27,96,1295,2835,2806
0.001309,1056,-524,-66,-269,6259,3298
0.003499,1088,-61,-82,-402,-8975,5863
0.002415,-2251,703,111,1004,3932,-6782
0.001316,1988,476,-157,439,906,-5453
0.003497,115,-194,-22,-582,-5192,-384
0.001428,-1113,-489,125,-2214,1250,-1962
0.003528,376,-39,40,-1097,491,752
0.001316,314,-80,-80,825,-2619,9117
0.002415,-1209,-411,108,-2217,-197,412
0.003470,901,357,-13,606,3550,-4540
0.001305,55,787,55,4349,-6293,-699
0.003489,-1547,27,161,2585,1070,-4263
0.002410,1545,-956,-63,-1475,5548,-2760
0.001314,-1134,-173,122,505,-3804,1757
0.002372,396,128,0,2187,1328,6101
0.003485,366,-438,-82,-3910,-717,3501
0.001316,-693,309,5,-571,441,-1654
0.002386,978,951,10,2070,-5408,-661
0.003486,-1285,262,153,823,6626,-5494
0.002426,1710,-836,-178,-2449,-1598,1235
0.001326,-1329,-250,124,-2495,-2554,-364
0.001287,557,398,36,2169,1641,1377
0.004566,845,-200,-91,484,-4408,6687
0.001301,-2360,77,96,-621,5976,-3509
0.002396,1402,430,-50,553,-2682,-1719
0.004560,-928,88,94,-807,3897,-6110
0.000238,1435,-465,-63,-71,1727,-849
0.002471,-581,-160,104,-137,-5122,4678
0.002392,-1060,404,240,1097,2937,670
0.002424,1574,-233,-143,-12,-865,3487
0.002387,-892,-16,-64,-598,390,2734
0.001351,-57,463,48,-161,4064,-6183
0.003500,931,442,-29,-575,-4783,-2755
0.002381,-774,121,-51,946,273,-706
0.001310,712,-623,4,-2239,2316,-1070
0.003480,-111,11,184,-71,-3124,5180
0.002386,-909,220,73,892,-2972,4288
0.001295,226,-13,-123,-740,2727,230
0.003599,253,81,25,-1171,3798,-4479
0.002568,444,473,171,659,-7328,-2729
0.002506,-1537,374,212,1872,1620,-4790
0.001385,445,-486,-74,1513,5348,2307
0.002504,74,-830,-28,-2565,-953,4295
0.003618,-313,146,129,264,1305,639
0.001406,1255,523,-97,1854,-5674,5065
0.002504,-1567,65,-2,-515,2343,-3265
0.002529,1399,463,-96,1009,2649,-857
0.001664,-624,162,89,-825,-2748,-570
0.002526,-248,-337,53,-1055,-173,-3718
0.003639,720,-380,-15,-2300,-2808,-694
0.001418,-584,112,78,261,6802,311
0.002491,1062,98,6,144,-7724,7472
0.002490,-1945,241,155,914,2124,-591
0.002532,606,93,-16,-1268,-1770,-2821
0.001477,-264,20,51,-774,9203,-7287
0.003619,1296,-121,29,686,-6908,4431
0.002501,-1900,-21,189,766,-493,84
0.001378,867,76,-23,1400,5565,-2192
0.003560,64,-195,47,422,109,3552
0.001472,-205,-72,-154,14,-1220,3890
0.003672,437,120,-145,-1407,-1467,-1564
0.001390,-1196,487,225,26,7454,-6984
0.002548,2570,85,-185,175,-7416,5941
0.002515,-1874,-283,114,-2111,3391,-221
0.001401,500,13,91,-1370,-2584,855
0.003612,-201,234,64,-1,1242,-100
0.002472,-163,-73,-45,512,122,-80
0.001441,1407,-318,-155,-2205,-1551,-222
0.002492,-1967,477,336,889,998,-2772
0.002551,942,411,32,3529,-2678,1229
0.002531,-1075,-550,65,-786,5235,-2696
0.002533,775,-320,-7,-334,-2004,925
0.002487,402,61,-8,693,378,2653
0.001720,-432,131,-71,829,-2044,5237
0.002490,308,-1,-114,-1082,-98,73
0.001446,-835,684,82,1578,3397,-2929
0.003657,1223,187,12,-1138,-2951,-3267
0.002548,-482,-424,42,-1510,2390,-5947
0.001395,706,-241,-28,-845,-4666,4632
0.002472,-626,38,66,-652,2172,3732
0.003680,40,221,71,864,-705,5383
0.001392,-555,131,45,88,-3581,513
0.002482,-426,141,65,665,6129,-9144
0.002490,1089,304,75,1736,-6171,-574
0.002543,-1003,-258,124,210,7968,-5718
0.001410,864,-432,-4,1985,-1508,3959
0.003598,-638,44,140,1998,-4481,7681
0.002709,-462,-218,-95,-763,6726,1736
0.001463,1699,-47,-167,-1742,-6131,3447
0.003594,-1127,530,181,-501,71,-5034
0.001384,19,621,70,1758,2896,-5137
0.001594,1479,-159,-157,-1780,-535,-3004
0.003609,-1404,-385,279,-1550,-310,887
0.002498,396,-247,162,-257,-3941,2299
0.002512,-207,-88,-84,-191,2728,3204
0.001388,33,-9,-81,-363,-1652,3780
0.002499,-72,139,60,-539,182,-1558
0.003635,-423,621,133,3758,-2060,-3692
0.001411,-53,56,136,3037,-69,-4885
0.001415,-327,-560,-6,-915,6950,-3530
0.003673,1309,-507,-54,406,-3237,5751
0.002800,-1450,-133,241,23,-3943,5801
0.000305,327,341,-95,774,5170,341
0.004693,937,227,-184,-839,-1123,428
0.001385,-529,522,133,231,-815,-1780
0.002541,-112,311,84,-660,-3389,-4903
0.002501,203,-196,-112,164,2645,-3387
0.001397,512,-577,-7,-1728,-2345,2814
0.003639,-230,-308,115,-1457,-1317,4065
0.001400,-518,572,108,1533,-1265,2827
0.003579,-220,317,-43,1602,743,-644
0.001405,-47,-193,-15,-1641,2338,-5464
0.002489,89,34,31,-914,5179,-6333
0.002481,757,124,60,2639,-6256,4039
0.002508,-1180,-221,107,1266,-1104,3049
0.002499,290,-155,11,-927,7891,-677
0.002472,1044,-78,41,-400,-4174,5580
0.002492,-1452,327,-17,639,-1139,262
0.002498,857,301,-151,-613,3651,-7888
0.001361,32,215,33,-666,717,-3143
0.002615,282,-71,29,754,-8081,4691
0.002651,-528,-609,-82,-1672,5344,-2366
0.001549,371,58,37,527,2787,2585
0.004710,734,269,33,-213,-7529,7271
0.001418,-2059,29,67,-492,2540,-1693
0.001441,1504,177,-95,-944,-2694,-4584
0.002507,-690,435,216,1839,6205,-7837
0.003614,163,12,118,2059,-4786,2764
0.002488,-837,-628,9,-683,1649,271
0.001378,473,-353,-20,398,3176,1939
0.001368,662,17,-23,716,-4803,6696
0.003678,-850,295,56,106,2807,-1218
0.002504,613,478,-56,1322,-2259,-264
0.001400,-261,349,-40,-181,762,-2963
0.003615,-200,-181,71,-1348,4275,-5268
0.001440,919,-331,26,-1358,-4278,-350
0.002499,-369,-169,-17,-738,-1319,2806
0.002477,-217,-36,9,-828,-2227,4336
0.002471,310,314,60,813,2487,2943
0.002492,-615,276,122,-260,-67,-1765
0.001389,259,344,-7,1412,-3578,-1596
0.002477,-657,15,76,-123,-534,-5531
0.003628,809,-431,40,-605,9332,-4591
0.001440,-58,-57,147,1680,-11479,6016
0.003611,-988,132,11,1090,5552,535
0.001475,367,-269,-42,-588,1091,4343
0.001376,838,9,-78,-446,-3217,1793
0.004682,-1878,477,68,458,5833,-7204
0.001419,2524,338,-194,769,-7581,2607
0.002521,-1314,-364,168,-1747,7348,-1305
0.001392,621,-285,85,-1017,-1844,1684
0.002506,-342,522,59,-178,-2966,430
0.003560,-632,197,44,1000,814,415
0.001393,1473,-531,-179,-2185,590,609
0.002469,-931,237,111,-971,5,-2814
0.002513,-117,788,165,3056,-4179,1506
0.001387,-817,-350,97,730,3882,-2049
0.004691,852,-771,-5,-1291,3124,-1939
0.001388,-70,109,110,930,-322,2581
0.001398,505,130,-136,1490,-3295,7627
0.003587,-437,-336,-77,-3045,-43,458
0.001434,-98,641,71,1219,835,-1405
0.004682,-6,628,23,1924,2530,-3481
0.000305,340,-356,-42,-2371,-3158,-4886
0.002542,-443,-297,131,-2105,2518,-4608
0.003603,715,-65,36,-220,-1870,5707
0.001396,-415,-103,5,-664,-2390,9078
0.003593,-445,153,49,-349,2611,2257
0.001394,-51,460,128,456,-1599,-2519
0.001381,235,357,30,2640,-853,-4744
0.003657,-414,-100,92,1238,-1798,-6292
0.002484,660,-224,36,1729,7842,-4149
0.001448,-103,-179,33,1558,-5947,6704
0.002496,-903,-160,167,272,413,4735
0.002501,736,-252,-119,-614,4215,2320
0.003609,133,180,-191,-509,-2103,1152
0.001378,372,513,1,-970,-1075,-3943
0.002486,-627,508,202,575,-913,-4784
0.002488,775,-231,-161,-1016,23,-2582
0.001388,-716,-424,60,-1311,1051,972
0.004736,149,-174,119,-472,-3813,3870
0.001398,-244,-111,-32,-401,3313,3383
0.001420,-223,113,-74,-133,-557,3269
0.002509,519,273,-31,-580,-954,-3723
0.002512,-1108,690,295,2451,2607,-7087
0.002486,1539,0,0,3016,-6299,2189
0.002532,-2462,-737,85,-1703,8648,-3481
0.001402,2038,-338,-132,-351,-407,3485
0.002487,-547,132,121,793,-3948,6783
0.003570,-445,73,77,389,-1007,2914
0.001401,794,240,-188,-1578,5235,-4372
0.002486,-241,666,-1,961,-2568,-1598
0.002516,13,272,160,241,-2924,-2026
0.003597,-27,-646,12,-3455,3370,-4264
0.001409,720,-437,-240,-1269,-1880,4439
0.002477,-325,145,62,267,-3361,4761
0.002487,-840,493,261,2483,1635,2308
0.002476,379,-29,-13,-754,550,-2433
0.002480,-473,48,-64,1381,144,-2889
0.002471,570,58,51,617,-4142,-1919
0.001402,-280,-193,185,-670,8238,-4686
0.003630,887,-18,-97,2527,-7843,8625
0.002475,-1536,-81,87,-614,364,2297
0.001413,239,188,122,-153,5643,-2094
0.002513,1765,18,-261,-388,-5048,2151
0.002515,-3103,317,121,-512,2760,-8226
0.001622,2576,265,-204,952,332,-2794
0.003615,-407,-231,44,-134,-2390,4609
0.001401,-351,-479,76,-772,-3833,5288
0.003599,-178,99,53,-734,5904,-2078
0.001383,140,551,-2,1905,-3361,3475
0.001407,277,-11,-67,-1420,-2549,-1082
0.003639,-1076,79,157,-859,4314,-7238
0.002513,1439,372,-10,3029,-2098,-723
0.002478,-1643,-113,195,252,1708,224
0.001376,499,-485,-6,-433,-282,2940
0.003579,25,-271,36,-335,892,218
0.002508,387,188,-82,2280,-1149,4795
0.001376,279,84,-112,-1599,32,-2624
0.003571,-451,508,13,889,785,-1507
0.001458,-173,297,60,122,-4150,1815
0.001532,7,-695,-52,-2565,4192,-5618
0.003598,820,-423,-15,-2122,-1588,440
0.002494,-95,197,98,184,-1495,2141
0.001403,-263,244,46,667,-1494,4115
0.002420,-75,104,6,34,741,518
0.002555,-689,73,43,465,-1915,-1408
0.003576,59,259,45,697,4567,-6343
0.001406,778,-178,-42,221,3687,-2661
0.002491,-43,-249,103,-144,-8480,4753
0.002505,-1258,25,208,417,5608,-3295
0.003584,1529,36,-140,1579,2328,4103
0.002498,-768,-254,34,-1160,-5859,5561
0.001377,-85,244,96,18,2642,-2818
0.001343,3,338,3,-92,8582,-6607
0.003620,1733,211,-224,-1032,-11201,5409
0.002492,-1518,-41,202,-1316,3228,575
0.001409,-51,-136,176,-972,2200,-1729
0.002469,568,383,-47,846,-2632,1385
0.002520,-579,-6,-36,1182,-1044,1068
0.003594,217,-361,6,-1944,903,-1425
0.001373,597,207,71,-951,1829,-3578
0.002494,-1298,665,184,4516,-1163,2353
0.002462,568,-285,-30,-39,-952,229
0.002521,-592,-802,79,-1973,4747,-1343
0.002470,985,118,68,404,-7877,2779
0.001392,-311,342,-32,1557,8788,-2432
0.002475,103,14,-71,-909,-5513,6276
0.003585,54,253,-24,-536,-1789,731
0.001395,-1267,354,171,575,4829,-5597
0.002549,2026,-6,-204,-502,-3077,-2855
0.002520,-1253,-465,16,-2028,965,-3322
0.001364,830,-60,37,359,-4673,6162
0.004652,-758,6,89,-863,3080,3065
0.001373,-172,344,16,1484,2321,2827
0.001407,652,88,-20,-1094,-5267,-576
0.002506,-2063,304,302,254,3185,-9578
0.003585,2184,19,-39,1033,4179,-5879
0.002503,93,-407,-55,734,-5310,4492
0.001394,-1909,-168,100,884,1407,4266
0.002470,1418,-33,39,688,3175,1506
0.003576,131,139,-40,287,-4357,7866
0.001388,-790,-7,-133,-1886,561,-4839
0.002476,446,434,-4,-728,5722,-9512
0.002520,1125,529,81,1102,-8253,1757
0.002518,-1205,-532,64,-2104,1625,-524
0.003555,79,-500,-9,-1825,3613,752
0.001349,75,91,46,153,-3776,3945
0.001358,-147,4,63,555,-3917,5060
0.002556,-461,-37,-51,-343,1715,-1990
0.002536,64,516,38,2006,7054,-7262
0.003581,213,471,151,3713,-6828,1369
0.001447,-694,-349,32,104,2804,-3507
0.001568,532,-959,-12,-1848,3263,659
0.003605,-133,-47,13,1050,-1629,5749
0.001404,375,259,-96,301,-2542,4488
0.001398,-596,374,100,-159,883,-371
0.004687,668,440,-47,15,-620,-3332
0.001412,-271,394,-43,-311,4390,-5338
0.002480,172,-70,32,-766,-5136,-215
0.002547,182,-534,61,-2567,-997,471
0.002503,-812,-276,105,-1021,2984,-141
0.002493,1714,403,-142,1781,-4863,6760
0.001375,-1924,222,145,875,3741,302
0.003553,54,33,65,40,102,-3097
0.002495,394,98,-7,-1174,3412,-6363
0.001402,-9,-8,38,1891,-1075,1416
0.002487,329,-385,62,-779,-5092,4028
0.002504,-1169,-51,137,1143,6657,-1899
0.002506,1052,195,33,1091,-3346,4285
0.002503,-153,-67,-46,-1290,4077,1328
0.002517,-58,52,-73,-1518,-1011,-2327
0.002462,176,614,14,-9,-2911,-4738
0.001391,-586,393,147,1255,2009,-2832
0.003631,1573,-572,-94,-1374,-213,3247
0.002489,-684,-516,1,-1808,-3702,5981
0.001399,-870,476,154,2046,-452,3088
0.003619,317,328,-18,153,2582,-3558
0.002451,80,-75,-61,-2206,3417,-5934
0.001382,650,214,24,668,-6858,330
0.003605,-1684,370,255,3626,1965,-1548
0.001384,199,-453,-38,-193,4704,-817
0.001392,244,-659,-67,-771,-1329,2416
0.003556,187,21,51,1437,-237,3276
0.002460,479,125,-69,267,1297,1993
0.002477,61,399,-76,-375,-5353,2772
0.001405,-1070,553,85,1152,3864,-1984
0.001469,753,-5,-43,-507,1815,-2424
0.004715,760,-510,-64,-2873,-3760,-2851
0.001401,-1367,18,166,-1232,2870,-5655
0.002486,1726,213,-48,801,-2116,4212
0.001522,-1253,-48,47,-4,-3288,7188
0.003575,-191,-67,24,-639,236,1068
0.002571,-548,402,107,391,3702,-5657
0.001368,608,209,-13,380,995,-6206
0.002494,914,-419,-79,-297,-2896,3112
0.002501,-1662,-268,253,-1030,-282,922
0.002485,734,387,174,2550,3303,-2133
0.003561,68,82,-17,2262,-401,6148
0.001415,-177,-520,-172,-2914,-2454,3312
0.001375,163,136,7,-1225,3996,-5127
0.003624,-638,947,192,2499,740,-5499
0.002493,1764,299,-137,811,-3691,2577
0.002541,-1541,-633,82,-2804,3561,2166
0.001401,425,-306,103,-1744,-2335,-475
0.002486,-188,574,109,1430,-1372,458
0.003569,-118,14,-65,1391,1620,469
0.001409,1251,-677,-199,-3172,206,-1023
0.001382,-1608,564,281,987,-3617,113
0.004708,391,571,139,3885,874,-737
0.001399,-244,-626,-35,-649,4630,-3019
0.002531,609,-388,43,-1221,-2590,1710
0.001386,-320,337,129,1553,-136,1693
0.002549,600,122,-104,720,-1603,3574
0.003608,-751,-139,-88,-1850,2017,-649
0.001378,-30,621,51,1726,-1534,-458
0.003555,237,254,53,95,933,-4507
0.001391,250,-570,-30,-2128,597,-3024
0.002484,154,-382,-58,-2500,-53,2708
0.002497,-164,254,64,-95,-5249,7370
0.002479,-548,272,108,910,1623,2636
0.001375,-125,81,80,-288,2193,-1315
0.002511,125,185,-63,-486,741,-6246
0.003565,85,143,-8,857,3295,-5771
0.002461,335,-247,63,859,-4899,749
0.001368,-504,-295,70,964,4652,166
0.002478,41,-116,52,1624,-1435,6192
0.003543,179,-17,-18,-125,-3127,4370
0.001406,194,81,-33,289,2324,-1943
0.003605,-55,462,-17,325,-1341,-3625
0.001384,486,358,-113,247,2417,-4213
0.001383,-125,-322,2,-2511,-2001,216
0.003586,15,-315,123,-1670,-1727,919
0.002516,-535,7,127,443,-504,2156
0.001361,189,-70,-70,103,366,3802
0.002494,-23,-307,-83,-1919,4395,-910
0.002468,169,427,65,334,-7653,1160
0.003618,-1530,929,277,2533,6581,-9285
0.001434,2403,-213,-113,1622,787,-163
0.002519,-2280,-867,158,-2698,-5027,1504
0.002485,182,-215,133,1533,5994,-845
0.002485,1051,-126,-149,628,973,4455
0.003611,-407,-80,-119,-1090,-4603,5778
0.001384,-215,431,92,-281,2949,-2606
0.001334,536,632,-4,1347,633,-2727
0.002570,84,168,-47,-434,-4724,-846
0.003698,-541,-470,1,-2231,4322,-5896
0.001432,953,-246,77,-1224,-1611,692
0.003581,95,101,39,550,-5010,7536
0.001405,-1188,114,51,682,2624,1324
0.002547,380,207,-18,744,2174,-1388
0.002560,-657,284,135,185,-1844,-3545
0.001410,11,-161,46,-1727,6350,-8234
0.003602,1748,-212,-155,987,-4169,4031
0.001474,-1943,-175,113,1062,-4381,5059
0.002502,-269,20,175,153,7574,-2064
0.002532,1439,-151,-36,15,-1550,4768
0.002532,-597,-29,-199,-374,-2754,1863
0.002596,-623,458,17,298,5148,-7389
0.001379,1120,563,73,537,-628,-1300
0.002587,-185,-217,8,-748,-3562,1750
0.003634,-493,-389,-33,-334,3103,-1046
0.001391,1034,-98,0,-636,-2764,4734
0.003609,-1426,225,186,-573,162,2925
0.001377,659,96,-56,-954,-216,-1235
0.001388,-42,121,-52,-173,961,-4991
0.003632,-4,238,122,1696,-1263,-1829
0.002502,-413,-202,176,311,5214,-1561
0.002505,219,-595,6,-837,-2308,4221
0.001384,-322,-144,-6,-761,-374,1096
0.002590,557,430,56,2358,1196,1631
0.003668,587,123,-47,304,-1557,3374
0.001479,-774,95,-35,-1249,-117,-2017
0.002461,48,655,2,1741,-772,-574
0.002506,-184,-134,42,-1559,4568,-5706
0.001409,614,-583,77,-1935,-2941,-683
0.003626,26,-64,62,-1082,-5736,2254
0.002461,-799,200,66,695,6682,233
0.001361,1067,8,-19,77,-6860,6627
0.002497,-1966,154,250,359,4354,-2440
0.002599,1408,288,-56,1281,-1227,-2413
0.002493,-720,-83,21,765,-3785,-839
0.002536,-584,-22,166,741,7010,-5068
0.002488,1909,-164,18,912,455,1863
0.001394,-1571,-80,173,198,-6879,5671
0.003601,-543,54,-98,1461,6601,305
0.001455,1887,-269,-234,-1414,-792,924
0.002516,-1196,338,166,-1297,-740,-2905
0.002465,1,625,60,396,-2480,-2059
0.003646,1138,-194,-200,188,2965,1070
0.001411,-548,-686,132,-1979,-3117,3487
0.001389,-229,273,178,256,-1410,-56
0.003614,117,326,-6,970,5702,-2198
0.001423,596,-435,-101,-2854,-5666,1350
0.002755,-478,86,103,-1688,42,-2683
0.002546,-242,741,228,3757,772,890
0.002487,-380,-114,43,589,1530,-622
0.002508,-146,-540,-14,-642,2891,-2121
0.001384,306,103,103,803,-959,286
0.002550,790,-79,-75,756,-2365,4191
0.003594,-1190,-98,-43,-1121,419,2698
0.001402,633,464,-99,1159,1916,1467
0.002491,-373,552,162,234,2028,-2975
0.002492,456,-142,75,-900,-5202,-3701
0.001405,10,-244,-8,-1964,737,-5009
0.003640,367,-100,-2,-292,3642,2563
0.002486,263,-14,32,-860,-5623,8339
0.002492,-1668,321,184,842,1086,1746
0.001378,907,160,-58,-614,310,-2295
0.003595,-288,-86,-6,-792,5986,-8269
0.002482,509,91,73,1531,-5602,-1385
0.001370,-678,-128,99,2188,420,431
0.002480,-376,-342,122,909,4497,247
0.002481,1053,-308,-42,1068,19,7140
0.001478,-592,-11,4,-663,-4360,5564
0.004705,-222,354,-16,-410,3655,-1910
0.001399,906,413,-31,-616,-1185,-4522
0.002528,103,198,-34,-490,-2600,-2675
0.001432,-849,-48,127,-1540,3601,-4571
0.003604,1256,-307,-10,-393,-3475,2819
0.002509,-1769,-258,145,-1340,1700,1566
0.001429,1260,-60,-87,397,-1037,4722
0.002489,-460,60,33,-1080,-1554,2546
0.003595,-1128,571,189,465,2901,-5219
0.001444,1391,492,-11,1990,748,-3999
0.002512,-570,-108,91,2300,-4041,2365
0.002518,-1216,-512,182,-1365,3024,-3571
0.001394,1213,-160,-73,1094,5656,1073
0.002534,2,-252,-80,-112,-6730,8713
0.003565,-556,16,31,-67,1741,2247
0.001378,586,531,-22,250,2834,-1896
0.002487,126,567,-131,538,-714,-3003
0.002487,-235,160,15,-44,-4188,-3066
0.003603,-88,-524,127,-2760,4011,-5775
0.001410,577,-319,-40,-389,-279,4480
0.002474,224,-95,-96,271,-7023,8093
0.002498,-1785,295,148,838,6138,-1198
0.001379,1509,249,-62,440,-545,-154
0.003784,-825,14,-14,-1141,-750,-4034
0.002474,-317,64,99,31,4208,-5439
0.001426,1904,-204,-111,353,-1261,1843
0.002512,-1929,-123,226,616,-3361,4806
0.001362,664,1,124,-558,1411,1402
0.003647,-115,-142,-128,-720,5706,-1509
0.002516,990,233,-181,442,-7761,4249
0.001420,-1658,340,274,-883,4155,-7572
0.003581,1182,360,-4,710,2997,-3363
0.002559,973,-206,-125,-664,-6920,3251
0.001396,-1629,-236,211,67,2307,770
0.002476,804,63,91,197,1662,2155
0.002475,285,36,-185,-1120,-1047,3067
0.002524,-1304,225,37,-643,-1284,-1303
0.002515,1414,451,65,505,-86,-4756
0.002673,-930,187,207,1817,2845,-2964
0.002499,66,-300,20,-221,-2301,1092
0.001378,-286,-339,-35,-446,5631,53
0.002512,598,-76,48,1729,-4177,5353
0.003570,101,-24,-17,-9,-3952,2576
0.001391,-771,329,-28,-154,6407,-4565
0.003597,1193,501,-80,2135,-3881,1648
0.001415,-1014,45,117,-791,-163,-1160
0.001419,-190,-222,74,-2187,3821,-4320
0.003595,1248,-227,-122,-1482,-1736,37
0.001356,-879,10,63,-70,-952,2557
0.002527,853,65,-2,427,-3683,4174
0.002461,-670,70,58,102,3446,2115
0.001481,-156,165,-27,-1004,-1700,-940
0.004680,-252,368,75,683,4863,-7733
0.001391,1172,-90,-38,-595,-3966,1405
0.001384,-1108,-345,66,-795,1813,324
0.003569,87,-30,31,902,-1100,-1317
0.002469,245,238,74,1906,1495,2108
0.002483,-267,-209,1,-79,-1817,3575
0.002484,429,-103,-149,-311,1631,754
0.001430,-404,283,-4,-1548,2868,-4723
0.002478,1169,539,27,872,-5122,-109
0.003578,-676,25,126,-38,-1135,2074
0.002512,-750,-489,101,-1459,5226,-2389
0.001367,1439,-8,-65,-332,-383,875
0.001400,-1325,316,147,1695,-3458,4259
0.004827,582,-281,-76,-1128,1046,-2859
0.001389,139,20,-2,-1386,1575,-3879
0.001384,-256,393,92,3259,-1386,1247
0.002502,-514,-201,120,1169,-480,244
0.002535,73,-393,12,-1488,3677,-939
0.002452,451,-108,3,-136,1673,836
0.002492,648,106,-108,1883,-3606,5056
0.002522,-139,-82,-17,-1664,-1895,2493
0.002494,-828,368,20,758,4904,-1148
0.001409,1092,280,-23,-1675,-3474,-3313
0.004674,-1120,89,148,246,6626,-7247
0.001410,1728,-436,-61,-1891,-8365,2506
0.001401,-782,-294,11,-2217,-1061,3960
0.003581,-700,226,146,196,3736,3704
0.002477,978,270,25,1177,-3419,4688
0.001392,-1825,220,158,-335,-62,-5313
0.002502,834,133,-86,-1656,7781,-9554
0.002499,1260,-208,-128,955,-3312,2666
0.003616,-1350,-338,200,27,-6487,3445
0.001422,-319,305,166,2904,7919,-1901
0.001400,1461,-266,-19,1868,-4461,8184
0.002495,-1327,-216,67,-2217,-359,314
0.003581,637,496,-80,777,6291,-4878
0.002472,1038,451,-51,-440,-5499,-1096
0.001422,-1742,100,119,-510,-695,-4255
0.002497,1412,-386,-125,-964,-468,191
0.003595,-839,-433,139,-361,3703,1525
0.001385,560,-121,40,-648,-6504,5454
0.002476,-895,202,49,-69,4313,-1314
0.002517,299,296,-85,480,-1278,656
0.001373,580,87,-100,-794,175,-1599
0.004703,-1278,343,282,2286,-4077,-977
0.001385,407,166,141,2655,1359,-2608
0.001410,-312,-755,-17,-1134,9065,-3604
0.002485,818,-317,-64,577,-8305,7514
0.002477,-352,125,57,-241,568,513
0.003577,-426,161,-19,693,1978,1670
0.001415,1213,136,-187,-992,-3959,1119
0.002496,-1907,440,211,516,6576,-5825
0.003578,1758,105,74,-260,-5522,291
0.001408,-786,-444,-27,-2473,1416,-2212
0.001376,203,-316,-44,-599,358,2895
0.002458,540,248,65,350,-2207,3232
0.002499,-1355,451,175,2415,-883,2413
0.003573,-79,107,36,185,-56,-3421
0.001402,306,-180,-91,-2182,7848,-8652
0.002478,520,43,-12,1626,-3939,3478
0.002486,-407,-151,56,466,-4807,2427
0.001444,-721,-24,42,985,7637,-305
0.004694,1217,-207,-57,-440,-4498,6126
0.001385,-1190,127,58,-721,1481,-113
0.001376,793,349,-46,797,1552,-3845
0.002473,-280,217,1,-448,-519,-5501
0.003560,15,140,-87,-295,963,-949
0.001394,713,-264,-90,-768,-3667,4437
0.002482,-1006,-282,190,-814,44,1367
0.002505,167,136,90,1348,-24,2540
0.002463,131,178,-93,-791,812,-26
0.002486,-234,104,33,-650,1631,-1262
0.002502,505,195,145,-1025,-6899,-2167
0.002503,-1352,333,221,2047,8161,-6593
0.001391,707,-123,-21,1323,-2040,2166
0.004724,-324,-568,81,-1224,-2403,3639
0.001379,-750,-165,148,358,4351,959
0.001400,1705,155,-126,1007,-3310,3529
0.002509,-1072,414,28,-131,3146,-1478
0.003571,307,605,80,1846,-2287,350
0.001376,109,-63,-13,-853,-821,-729
0.002518,-1377,-406,117,-1968,6098,-6697
0.002511,2301,-190,-108,-1577,-4311,529
0.003602,-1434,-103,123,-1092,1622,3424
0.001368,403,177,49,175,-5534,5447
0.001359,-342,310,11,616,4223,671
0.005792,-1063,255,116,808,806,-2507
0.000285,1331,-7,-113,-930,1214,-4036
0.002469,-807,4,46,1643,-3505,2466
0.001383,-100,-304,136,-755,663,-285
0.002477,134,-181,10,268,6079,-2731
0.002555,183,178,-72,2266,-4125,5903
0.002502,-309,-141,78,-1345,-1207,2530
0.002468,-334,39,1,-838,1106,-1691
0.002533,941,329,-164,-669,2205,-2590
0.001385,-839,470,179,877,-2229,-230
0.004731,1137,-207,-16,184,-4353,3895
0.001476,-1964,-302,183,-1426,7944,-5334
0.001427,2254,162,-179,1269,-4018,3714
0.002508,-1878,102,182,-443,442,496
0.002473,982,-192,-65,-181,277,807
0.003586,30,11,15,-1993,-1606,-1772
0.001406,-1275,706,185,3942,1265,-3209
0.001364,881,-82,31,1647,991,-327
0.003713,-510,-845,25,-2041,1460,-748
0.001399,384,-171,19,-1296,-1598,2010
0.002501,95,406,-36,2573,526,4075
0.003602,-199,-38,0,-766,-1476,4377
0.001396,-215,183,49,-1270,2584,-2751
0.002474,429,529,19,737,-2195,-3417
0.001424,-622,157,28,396,-897,-3239
0.003619,454,-621,-63,-1909,6205,-3796
0.002507,1237,-198,-9,-1254,-9120,8155
0.001388,-2326,545,238,745,3047,3066
0.003586,933,130,-15,218,4667,-30
0.002507,66,-105,-38,-1998,-5676,-1896
0.001458,-1892,387,236,156,2958,-8715
0.002505,3008,26,-142,1912,3751,-889
0.002523,-1491,-634,122,-535,-4488,3749
0.002510,-760,70,106,1042,1852,1003
0.003592,1301,57,-107,1514,344,4587
0.000296,-1010,-244,73,-354,-1818,3788
0.002540,1138,-31,-173,-1470,1706,-3976
0.003594,-1214,753,3,-98,2515,-6350
0.001383,1611,497,-23,830,-5636,-697
0.002519,-726,-768,136,-1754,1628,-932
0.002545,-333,-523,63,-1875,-2201,1927
0.003580,613,273,-46,1222,3338,2273
0.001384,-819,132,59,1436,-3316,5439
0.002460,-22,6,60,-1874,204,-4281
0.002473,454,323,-1,472,8509,-7488
0.001383,107,412,99,3208,-10563,5508
0.003601,-878,-440,140,-209,5759,-3932
0.002478,214,-625,-22,-400,4681,251
0.001382,427,-67,-62,-583,-4460,4080
0.002461,-44,111,-52,114,910,2647
0.003596,-120,165,-27,-530,-2563,2187
0.001376,528,431,-78,545,2201,-3002
0.002485,-1009,377,76,750,2127,-3438
0.002519,1026,-190,-20,-472,-3764,-1684
0.002499,-93,-477,26,-2190,1086,-1033
0.002488,156,-209,19,-880,-1679,4757
0.001368,-300,277,76,-78,2040,1480
0.003586,-237,331,73,1954,-1130,2627
0.001410,-312,160,57,361,-2206,-1954
0.002494,175,-155,-2,-1389,6247,-7409
0.003579,608,-97,-45,-14,1987,-2909
0.001354,51,32,38,386,-10871,4830
0.002492,-1675,-61,168,1709,9382,-668
0.002519,2178,-502,-207,-2107,-5126,6346
0.002486,-1217,146,82,-717,4470,1428
0.002520,332,409,92,310,-3128,-2258
0.001385,-45,361,-28,368,-1362,-6622
0.003610,81,-23,-103,74,3386,-3341
0.003597,1096,-468,-97,-881,-743,3375
0.001391,-706,-158,154,172,-2940,5759
0.001375,-480,237,67,507,-2825,4223
0.002493,-451,83,-16,-1457,6904,-4380
0.002518,1307,148,-106,-1795,-1143,-3160
0.002493,-200,409,193,1118,-5451,-158
0.002537,-1075,170,176,1687,-86,-3132
0.002576,-71,-390,-23,165,6803,-1853
0.001405,352,-713,10,-424,-3986,4677
0.003555,-229,-69,66,574,312,787
0.002468,788,301,-103,1132,44,2514
0.001359,-865,342,42,371,510,-676
0.003603,772,272,-40,1382,-45,-104
0.002486,-701,-17,49,-756,-1582,-991
0.001404,253,-266,9,-1047,4340,-4344
0.002514,562,-388,31,-2143,-2701,-212
0.002461,-370,47,42,-533,521,2792
0.001375,341,224,-10,293,-3236,5612
0.003595,-1218,198,175,183,2096,-1004
0.002453,583,39,6,-982,133,-2558
0.002485,-368,40,23,-1185,1012,-5280
0.001376,790,-221,-59,259,3991,-809
0.002586,-601,-209,175,-142,-8712,4363
0.003578,-215,79,123,948,4948,-2294
0.001416,160,78,-118,1536,5600,3305
0.002513,907,-352,-153,-1993,-8353,6300
0.002510,-1805,300,211,-1071,6209,-8563
0.002579,1623,707,-79,2180,-5242,-1311
0.002471,-334,66,-49,437,1755,1109
0.001374,-169,-497,65,-2153,808,124
0.002469,417,200,51,737,-4963,2507
0.002720,-1269,347,52,968,2291,-1705
0.002513,1214,-306,-169,-879,2075,-219
0.003579,284,-311,5,-2643,-4125,344
0.002490,-1857,802,306,2788,802,-3899
0.000270,900,345,15,3742,3787,-1288
0.003593,-59,-846,-56,-1348,-1031,2251
0.001391,-622,-467,134,-1390,652,-318
0.002468,1020,442,38,2509,195,1995
0.002533,-138,-3,-60,429,-1969,4335
0.002476,-389,8,-44,-1411,-683,1595
0.003573,-299,704,73,796,4328,-3486
0.001387,919,157,-16,-543,-2676,-3873
0.001410,-671,-400,-22,-2257,-292,-4670
0.002537,578,-369,-9,-1513,1429,1187
0.003560,257,11,53,-466,-5476,9077
0.002484,-1008,244,114,101,-415,2089
0.001375,-235,283,51,464,4385,-1192
0.002577,630,88,-43,-680,-4712,-683
0.003630,-1393,122,206,-967,4250,-9436
0.001392,1853,80,2,849,2000,-3124
0.003596,-796,-57,54,2680,-4935,5903
0.001370,-978,-326,73,278,939,3729
0.001374,742,-36,-8,494,988,4260
0.003628,-327,140,-36,-737,339,715
0.002509,100,466,-72,-234,648,-3742
0.001354,55,754,92,197,-35,-5581
0.002558,1064,-63,-39,793,-3581,2399
0.002603,-1645,-661,103,-3102,-1015,-2814
0.003584,238,72,40,577,5038,-2042
0.001392,1230,37,-27,736,-6042,8473
0.002509,-1958,-106,155,-1289,4490,322
0.002515,1525,258,-59,-1093,-775,-760
0.001472,-1711,811,212,2049,473,-4915
0.003613,954,215,15,3330,1297,-2135
0.002501,333,-926,-63,-1651,-88,1032
0.001424,-1521,-346,66,-498,1033,211
0.002528,1539,169,-158,1532,-285,4112
0.004849,-772,-62,-10,-1514,527,3248
0.000289,52,419,8,-154,-731,541
0.002535,502,586,-88,314,3047,-3693
0.002533,-529,179,72,-497,-3342,-1011
0.002507,653,-449,-67,-2296,2760,-4112
0.001387,-290,-280,96,-1510,-811,504
0.001385,529,280,25,637,-4327,6328
0.004716,-781,96,-15,1265,4315,2545
0.001395,-44,34,-40,-1672,-3410,627
0.002484,-694,424,94,763,3117,-5440
0.002496,963,152,25,1492,-598,-3774
0.002597,-94,-464,-85,-857,6067,-2499
0.002485,285,-139,9,679,-8718,7250
0.002491,-1400,222,127,1297,4684,866
0.001402,1796,-232,-138,-480,1801,3053
0.002484,-508,2,31,-1361,-5646,3515
0.001431,-1181,617,73,-481,8262,-9760
0.004723,2137,479,-252,675,-2466,-1579
0.001456,-840,-174,103,-1113,-5148,1303
0.001395,-582,-421,114,-909,3749,-461
0.002500,906,-54,-140,97,331,3947
0.003616,-406,127,-51,472,-4187,5499
0.002510,-749,156,45,-940,-134,-603
0.001369,247,372,9,-788,3599,-7864
0.002498,296,421,-3,1623,1102,-4117
0.002583,-118,-151,20,1418,-1653,2909
0.002509,-1034,-728,63,-2358,344,1485
0.002465,408,-61,-34,554,2483,1067
0.002543,453,301,-74,1887,1006,2071
0.001387,581,52,-144,-447,-2594,3759
0.002551,-839,365,-13,-536,-891,-1292
0.003585,-5,644,31,1249,1745,-2975
0.001398,238,-185,-64,-1402,3619,-4088
0.002491,548,-440,-58,-2391,-5921,519
0.002502,-703,-202,70,-1418,1326,125
0.003552,342,238,12,524,418,2569
0.001381,301,193,-70,1301,-1687,4996
0.002513,-1545,160,113,308,433,-525
0.002530,1291,137,-85,723,-3716,-2567
0.001418,-1216,158,104,587,1972,-5482
0.002603,883,-53,-52,1028,5227,-2929
0.003611,430,-392,-114,-42,-5768,4513
0.001382,-2287,38,295,1111,-208,2128
0.003608,1964,42,-82,1155,4438,669
0.001395,143,-200,-236,-607,-680,1263
0.001414,-1117,424,20,-780,-4185,-3012
0.003592,676,599,73,1604,-315,-2425
0.002459,39,-246,-58,192,3516,385
0.002529,553,-663,-167,-2298,-3116,2036
0.001426,-1115,323,182,-1052,-2098,-187
0.002519,303,418,118,1550,2901,-663
0.003587,425,-403,-104,-1764,983,-652
0.001390,-171,43,-60,-1244,-1883,-303
0.001402,-366,734,145,2834,-2366,599
0.003573,-484,-9,173,1449,215,-1958
0.002489,-153,-628,21,-358,7345,-4690
0.002502,1091,-84,-42,469,-2301,2913
0.002455,31,121,-4,-47,-4317,7291
0.001364,-869,-33,7,-506,2517,1176
0.003577,780,401,-108,228,1191,-1156
0.002503,-369,813,81,2768,-1631,-638
0.002502,516,-324,46,-2395,-2271,-4813
0.001399,-585,-459,92,-2992,4324,-7524
0.001383,1407,56,-36,1119,-5970,6014
0.004712,-1584,12,149,-233,-313,6386
0.001399,-281,-152,3,-450,1507,1579
0.001384,582,72,-21,-725,-1161,-890
0.003718,-1055,235,121,619,3695,-4856
0.001390,1697,16,-51,1378,-5870,1284
0.004806,-1919,67,278,1389,5090,-4944
0.001387,1105,-11,102,3418,-1531,690
0.001377,-576,-281,32,986,-744,6963
0.002479,-4,-435,-76,-892,3616,3665
0.001389,767,55,-67,-1770,-1851,288
0.004723,-1353,857,150,385,238,-4070
0.001395,1229,384,-48,588,-1018,-2643
0.001386,64,-525,40,-2649,3581,-3632
0.002517,-425,-195,188,-853,-5469,2159
0.003598,-304,113,99,-95,483,2732
0.001404,-187,-221,-64,-1044,1072,4024
0.002520,349,-180,-30,-1720,-3030,1854
0.002528,-1516,749,312,1677,3118,-5332
0.003640,1303,667,63,4083,-2307,-2880
0.001394,-989,-547,91,-520,4916,-1919
0.001379,182,-764,34,-500,-2527,148
0.003601,186,-38,-18,1346,-2089,2972
0.001366,-571,38,54,729,-409,4178
0.003642,559,-196,-88,-1924,1780,1428
0.001410,-891,669,130,157,1167,-2081
0.002489,1398,664,-47,1770,-65,-1683
0.002507,-672,-383,97,-2020,-3703,-1176
0.001409,-416,-378,95,-2261,11,-3890
0.003575,1058,-49,-16,-290,611,284
0.002489,-776,297,89,1727,-1638,4513
0.001366,164,120,55,479,-2204,4096
0.002515,-1819,102,130,-1098,4107,-1754
0.003614,1170,-42,-94,-2561,3244,-7056
0.001409,355,184,47,3013,-2805,-56
0.002497,-857,-75,190,2538,-5560,2553
0.002473,348,-266,-28,306,8843,216
0.002529,544,-174,-6,50,-4504,7548
0.002501,-771,182,79,-491,-1518,374
0.002474,-411,432,9,716,2984,-5669
0.003596,967,152,-74,-1084,170,-5430
0.001398,-500,34,101,-1240,-450,-1965
0.001472,257,-59,-40,332,-477,4684
0.003605,-215,-290,28,-721,-4203,3452
0.001428,-838,216,131,1491,1886,466
0.003608,330,83,-61,-611,1814,-1353
0.001406,-473,-108,-75,-1295,-574,-652
0.001415,601,179,90,-800,-4671,28
0.003624,-1258,319,216,1458,6546,-4836
0.002452,256,94,48,2667,-4,1587
0.002506,77,-733,-35,-645,-2192,1516
0.001433,-534,-364,89,-855,1572,-442
0.002531,1434,336,-99,1945,-1572,3491
0.003596,-1738,445,94,566,-177,1529
0.001412,434,191,-20,126,376,528
0.001402,258,-129,-42,-2067,1851,-2459
0.004704,-355,-300,35,-2134,-1637,-457
0.001384,81,-122,-39,-2136,475,-5584
0.002470,482,209,-16,763,-2010,724
0.001376,-722,160,62,825,-3486,5740
0.002486,-655,-344,31,-250,2900,1589
0.003584,-260,66,54,-1583,1453,-2916
0.001364,328,486,98,1654,-1748,229
0.003576,-365,-105,58,603,-701,1255
0.001403,-190,-576,98,-825,1276,-3209
0.002478,-57,567,181,2394,875,-2488
0.002498,162,267,-51,2861,1126,4251
0.002512,-690,-781,-62,-3357,-2130,4758
0.001403,173,-171,-33,-1567,1895,-1175
0.003600,-1043,991,189,1265,2716,-5753
0.002513,1435,375,-65,2012,-3316,1558
0.002506,-972,-666,135,-2452,-1585,823
0.001373,486,-216,54,-570,2296,-371
0.001399,-486,313,83,401,1384,506
0.005838,-443,141,-30,-73,-2843,2097
0.000304,257,-306,-22,-2964,-2434,-3116
0.002527,-612,280,125,857,1187,-2249
0.001357,185,437,77,3473,2305,815
0.003579,-317,-290,56,287,-1110,1326
0.002496,-415,-251,63,-1563,-1382,-804
0.001394,335,168,85,1607,2944,-1787
0.002518,781,15,-113,193,-3346,3988
0.002525,-1445,6,-68,-1857,671,338
0.002477,-73,649,64,1312,-2196,1431
0.002469,-162,73,66,109,3812,-3855
0.002515,421,-499,-50,-2423,1611,-3435
0.001351,147,-3,1,-2029,-5630,47
0.003578,-513,449,125,1072,-820,3459
0.002474,49,-208,7,-4,-1277,4678
0.002544,-1108,-22,122,-91,4329,-1230
0.001377,38,612,108,998,-1306,-1885
0.003577,175,48,-37,-423,4261,-3472
0.002484,-213,-496,88,-719,-3112,-694
0.001385,-82,239,157,2935,2686,-1620
0.002476,-80,380,110,2640,-609,2441
0.002494,-301,-365,16,-577,-2190,5658
0.001439,98,-598,-30,-1867,570,2154
0.004743,439,145,-28,-477,4598,-4348
0.001408,-749,749,152,-1215,-4011,-2928
0.001374,237,219,-31,1324,-924,1478
0.002781,-546,-956,124,-3389,-160,-2881
0.001420,517,135,125,362,150,-771
0.003578,-362,483,61,1683,934,4853
0.002503,-553,-313,-27,-956,-2337,3033
0.001409,-377,-214,106,-2915,1357,-3426
0.003594,-265,894,203,2993,2022,-2043
0.002533,977,284,47,2346,-2696,1815
0.002519,-1208,-843,139,-2868,-773,-1111
0.002521,-1001,-39,228,933,4857,-4552
0.001376,2202,281,-86,3153,528,2196
0.003603,-1688,-493,2,-2019,-1333,5527
0.001465,235,-218,-24,-3505,-2976,2546
0.001378,72,693,133,1656,3403,-1274
0.002562,-28,340,44,1354,-487,25
0.003612,66,-469,-92,-2735,1758,-4113
0.002497,-279,52,146,-1852,-1803,-4482
0.001383,536,470,176,2020,-1849,3498
0.002499,-399,-357,-35,-1765,1910,3723
0.003589,-444,121,11,-673,328,2791
0.001433,-399,653,208,365,-2881,-2630
0.002484,-932,209,230,616,8926,-8322
0.002546,2856,-477,-195,1100,-6961,5225
0.001411,-2393,-124,248,-779,952,1513
0.004747,344,369,136,1520,3963,-690
0.001365,670,82,-50,782,-3256,3653
0.001400,-962,-220,138,-343,110,2203
0.002558,623,-139,-51,-1484,4029,-4052
0.003625,-234,567,13,-1160,-475,-4329
0.002521,-171,609,159,1171,-1873,412
0.001388,388,-435,91,-361,2275,248
0.001413,111,-377,-4,-1653,-3518,3136
0.003588,-850,505,76,2239,-1180,2889
0.001471,-469,105,60,-102,2515,-571
0.001459,567,-414,8,-3025,6026,-3776
0.004676,729,256,116,-107,-6515,1709
0.001442,-1747,513,244,3324,3507,-2053
0.002525,218,-534,-20,-918,1521,-1414
0.002485,347,-608,-9,-950,-111,926
0.002426,69,94,188,1039,856,1508
0.002495,729,282,-43,492,-1812,3602
0.002485,-1462,190,72,-834,2529,1791
0.002464,460,93,15,-785,-734,-748
0.002452,569,2,60,137,1534,-3212
0.002511,-263,-319,29,-1358,-3407,-1875
0.002476,25,-234,31,-2250,858,-3548
0.001375,-300,204,127,377,1380,2615
0.001358,461,170,60,679,-111,4887
0.004669,-244,14,5,-211,-1770,4240
0.001391,-1079,343,133,169,-707,-2071
0.002468,1078,27,7,631,210,-4739
0.002493,-697,-124,70,2209,3100,-3040
0.001461,1018,-354,22,-104,-948,-685
0.003604,-1324,-16,167,826,509,3448
0.002479,-65,-161,-42,104,1118,5210
0.002502,863,-528,-170,-1791,1756,1390
0.001421,-457,436,112,-746,-1913,-2450
0.001446,339,850,59,791,-1733,-1887
0.004679,-543,113,73,793,4094,-3315
0.001397,1334,-451,-8,-680,-2034,2821
0.001386,-1003,30,105,-796,1246,1945
0.003576,204,175,20,-498,-3908,3822
0.002503,-270,119,5,-1685,5482,-5110
0.002478,583,293,70,-27,-1037,-1834
0.002478,-95,493,18,1934,-4042,2803
0.001391,-1059,-135,99,845,5096,-5838
0.002485,1279,-280,-44,1482,2496,707
0.003633,-692,-208,-1,-171,-3472,3654
0.002867,1008,-138,-130,-1285,-2034,3629
0.001451,-1330,127,102,-1042,3770,-17
0.001601,1128,587,-89,2565,-550,1762
0.003611,-58,415,-9,1284,-387,-1318
0.001536,-150,-95,0,-1711,-2305,-6588
0.002496,-132,-45,-61,-567,3779,-6120
0.002517,905,-125,-174,-16,-4105,5523
0.001519,-375,-113,-85,-1252,2041,7017
0.003596,-17,333,94,-342,-5025,5293
0.001402,-1258,890,166,1912,3158,-3864
0.002512,1215,85,-137,188,6467,-8283
0.002590,869,-343,-165,-119,-10762,341
0.002521,-1734,191,111,1001,6003,-4950
0.002479,1181,-8,-99,2863,2697,1744
0.002517,-29,-364,-191,476,-4664,8688
0.001379,-527,-21,24,-1075,421,1668
0.002534,1267,404,-64,1068,3060,930
0.003623,-498,324,-115,-1800,-3332,-3547
0.002530,-148,599,-143,-316,687,-6522
0.001392,726,290,-66,-176,-3640,-1120
0.001424,-551,-310,69,-1186,1294,-1060
0.004730,28,-360,-42,-1713,-239,863
0.001387,214,220,-151,673,-6616,7074
0.001435,-1152,298,29,1455,6663,-682
0.003645,706,102,2,-591,-2344,-1693
0.001390,-866,613,21,1209,4976,-7273
0.002561,1156,404,-4,3540,-4708,2416
0.002514,-1875,-485,141,-600,1800,-1491
0.002509,1247,-591,-169,-880,4278,117
0.002487,-559,153,60,-606,-5094,5841
0.001373,171,273,-89,868,3811,3338
0.003607,-192,286,-79,338,-2593,696
0.002579,85,591,-10,1014,2805,-2638
0.001447,183,263,22,-308,-1923,-3189
0.003923,67,-297,-48,-536,185,-3717
0.001384,580,-106,-69,-740,775,-281
0.001389,-353,240,113,594,-3631,4917
0.003594,-734,249,139,610,307,2933
0.001427,38,127,-24,94,4459,-646
0.003646,855,-58,-121,-1333,-1011,-1630
0.001398,-397,441,150,844,-333,-3275
0.002480,-63,332,126,1559,348,-1689
0.002505,529,-224,-91,1097,-130,2997
0.001394,-492,-187,97,729,1861,3110
0.004705,816,16,108,-588,-2320,4709
0.001467,-850,204,28,146,5272,-3006
0.001395,1121,174,-122,430,-102,-2932
0.003624,-201,214,39,-50,149,-4906
0.001415,901,-116,30,549,-5573,2415
0.002581,-583,-312,86,553,3745,1595
0.003589,730,-367,-57,-212,-554,3522
0.001378,-234,189,71,-909,-230,2620
0.002530,-160,178,156,-1795,-2044,-2347
0.001384,744,215,51,-823,3928,-4727
0.003578,241,210,90,448,-2390,-20
0.002477,-988,339,165,2345,971,774
0.001389,-135,-239,116,76,5684,-2304
0.002495,1194,-52,-71,1669,-2685,1987
0.003562,299,142,31,1560,460,2840
0.001362,259,80,39,1240,1502,3003
0.003580,-224,174,96,-630,-2071,964
0.001397,-123,572,111,2050,2954,-3156
0.001391,1002,-75,-58,-627,3303,-4787
0.004711,568,-573,-83,-990,-3271,1090
0.001392,-621,-45,121,-430,-2833,467
0.002524,559,265,68,1426,4509,663
0.002511,1177,-217,-55,183,-1608,5671
0.001415,-892,-270,112,-1826,-2806,2760
0.003597,-377,534,125,483,4991,-7941
0.001387,1435,673,-67,2072,-58,-2610
0.002506,-403,-230,-44,1593,-3136,4280
0.002505,-281,-596,34,-1235,3180,-4364
0.001426,920,328,57,2087,-1588,3241
0.003589,-760,361,90,1806,2545,2337
0.002550,1527,-480,-206,-1025,2169,-250
0.001378,-877,274,126,647,137,-3362
0.002495,1130,628,-28,2512,-3463,126
0.003596,-96,-214,-81,-337,4687,-624
0.003616,922,-682,-92,-1847,-2726,2549
0.001354,-463,154,83,-816,4,1868
0.001388,-415,641,157,994,3018,-2769
0.002494,1968,5,-106,-30,-1154,-1713
0.002523,-719,-150,34,-52,-931,377
0.002476,400,109,-47,1192,992,2046
0.002507,-614,-15,-37,-1502,4160,-5482
0.001381,508,404,-92,2810,3111,-427
0.002525,1243,32,-226,-274,-3400,1847
0.003627,-439,17,-92,1646,66,4765
0.001386,704,107,-122,66,1455,1882
0.002423,602,150,-51,1993,594,324
0.002554,-433,323,52,1753,-653,-3553
0.002461,606,3,-145,1263,2759,-5412
0.002450,607,-253,-184,940,1508,-2590
0.002420,720,-374,-184,457,49,3218
0.002434,344,-135,-90,322,-2114,5188
0.001343,166,-211,-100,-6,-132,2784
0.004660,67,-24,-85,-920,4200,-4293
0.001346,1573,-3,-225,-638,-3639,-860
0.001365,-1211,117,-45,1230,1871,-2075
0.003551,1115,-195,-215,187,3137,-2099
0.002434,322,-47,-121,204,-1920,2880
0.001323,78,110,-62,1422,2049,5129
0.002453,916,-413,-207,-668,-937,4337
0.003563,-171,170,11,673,2654,-1583
0.002466,1345,736,-88,1568,-5247,-348
0.001344,-664,118,-49,2271,4099,-6382
0.001387,1175,-546,-165,-2056,-1462,-3948
0.004620,-178,-307,-98,-294,-394,1185
0.001315,532,-330,-117,-237,-1117,6402
0.002420,494,-589,-157,-1681,2095,7470
0.002378,267,20,59,-1462,-1784,688
0.002426,634,749,-3,1726,49,-3875
0.002390,260,371,-3,-367,4632,-9089
0.003501,1331,-314,-271,442,-9260,5033
0.001310,-2878,-264,63,-834,3759,-667
0.002362,2161,19,-209,1416,6397,-1916
0.001325,592,-38,-41,1383,-5560,8645
0.004556,-69,-349,22,-862,-1225,2687
0.001316,519,166,-139,277,4681,-3514
0.001306,592,601,-89,2075,-1983,-1321
0.003466,-397,99,6,693,-1154,-1798
0.002396,498,-445,-129,-1639,601,-718
0.002398,1016,-414,-201,-1276,519,2926
0.002375,-108,208,92,-40,-2871,2170
0.002392,558,333,50,2149,-363,992
0.002423,-140,-446,-37,-1365,1793,-2718
0.002423,406,-186,-115,-2523,1369,-4476
0.001302,972,648,-76,1754,-3487,4189
0.003472,-567,265,78,1194,571,3140
0.002368,1088,-85,-66,83,914,405
0.002385,367,438,65,1323,-1829,1003
0.002377,59,328,134,963,1774,-2473
0.002396,883,-219,-96,-429,-775,-3288
0.002395,-264,-40,-113,71,596,-1
0.001450,793,188,-71,-559,-2337,2084
0.002364,751,-110,-77,-141,40,86
0.003464,258,-23,84,852,-2490,-1269
0.001279,333,169,12,1704,160,-282
0.003464,-12,-343,-78,-1051,-557,939
0.002401,399,-417,-46,-2173,-434,280
0.001287,517,165,52,-702,-658,-426
0.003456,488,489,-18,1731,-366,155
0.001294,-493,136,71,-156,3397,-1705
0.003480,1016,25,-68,931,-3315,697
0.002376,227,265,69,925,1314,-2546
0.001303,1208,243,-85,2348,-3599,3149
0.003482,209,-148,-101,-552,-1890,787
0.003461,-515,61,5,-729,744,-2979
0.000203,1204,148,-68,-347,-3513,26
0.003495,-408,-436,2,-1496,2910,-2129
0.001351,938,-388,-93,-2484,-3815,1044
0.002412,-107,66,58,235,2294,-781
0.003510,311,84,94,-232,-5189,639
0.001340,381,-152,-60,1691,-803,1605
0.002416,-578,-491,11,-1622,-348,7
0.002476,1061,-148,-113,-1637,-3626,1461
0.003542,-1450,329,182,-1340,3144,-3532
0.001325,1153,123,-1,925,-4599,2640
0.002490,-416,-197,122,-1551,2451,-2778
0.003525,679,39,64,162,-4652,1578
0.001323,-225,381,88,646,-909,-154
0.003528,-523,100,20,1391,-617,114
0.002471,589,-221,-175,-1327,31,-643
0.001353,-785,178,65,-1213,-1478,-1641
0.002429,459,350,12,2386,-3416,5053
0.002496,-757,-498,89,-2514,2156,-2237
0.002432,718,227,-20,190,1387,-469
0.002494,-152,287,5,-507,-3099,2048
0.001360,-1176,-11,59,-1485,-3068,-1024
0.002512,1369,173,-11,194,-1633,-1611
0.003541,-1446,346,232,1404,5136,-3267
0.001326,633,-129,1,355,-5399,4608
0.002460,-1235,-462,142,-2174,-225,-3387
0.003533,-121,113,158,1211,4081,-1469
0.002432,2103,-36,-158,43,-4995,6623
0.001342,-2421,-212,95,-1369,1273,979
0.002494,1045,440,-103,770,-4548,3446
0.003543,-1888,441,182,542,5269,-8382
0.001376,1044,-397,-48,-1036,1553,-3471
0.001343,369,-494,-73,-3351,-4256,528
0.003555,-519,8,71,-966,-2807,6755
0.003622,-489,378,212,-158,2550,3975
0.001317,376,-1,10,-289,3346,1149
0.002476,-842,447,133,132,-4170,-2725
0.001332,315,347,103,1556,268,-6893
0.003591,-422,-190,159,380,-3959,-932
0.002445,391,-466,-91,-988,9226,-5605
0.002440,975,110,-64,2963,-5595,10690
0.001350,-2461,117,377,178,1627,4154
0.002573,1686,-98,-108,-1464,4998,-662
0.003550,623,406,-71,1213,-6887,3403
0.001359,-2077,545,331,1098,2036,-7063
0.001369,1805,14,-96,-1099,6132,-7079
0.003589,484,-424,-88,-2245,-5706,4720
0.002416,-1339,-578,204,-1772,-2931,2290
0.002436,78,11,206,-177,9240,-1605
0.002450,709,38,66,-501,-3402,3638
0.002414,-458,257,84,3,-3989,2220
0.002432,-939,127,167,259,7405,-6149
0.001371,1848,-173,-61,351,1427,1764
0.004670,-1121,-163,114,-2097,-6096,3282
0.001340,-692,168,266,604,5258,-3087
0.001349,2248,-13,-96,2071,1608,2090
0.002456,-1125,-340,106,234,-2765,4437
0.003545,-787,156,205,-1283,2944,-4035
0.001334,1402,515,-78,1751,2347,-405
0.002438,-646,-324,5,-1233,-1658,1200
0.001342,239,-353,44,-2364,3002,-348
0.004596,316,53,17,-2825,802,154
0.001330,656,250,-63,216,-2707,1579
0.001376,-450,-225,48,-252,-1428,188
0.004588,79,55,44,-394,3410,191
0.001358,-145,156,-11,-1762,1981,-435
0.002430,46,289,-35,-56,379,-1289
0.001334,-111,338,128,217,105,-1450
0.003524,839,316,4,2331,2130,2105
0.002443,344,-167,-85,-684,-2400,1849
0.001310,-186,134,6,317,-192,332
0.003521,-252,209,-18,829,829,-2085
0.002445,321,-146,-160,541,4452,-3263
0.001360,16,-370,-141,-1710,-1913,-1034
0.004639,495,-209,-252,-334,-609,5037
0.001346,246,-573,-245,-2123,953,3547
0.001362,-16,-130,-38,-1261,-1259,-1336
0.002406,49,379,2,996,1262,-2785
0.003551,284,-97,-148,-517,-3414,1355
0.002464,-741,-497,-169,-3614,6307,-2520
0.001361,1160,229,-140,-1356,-4218,2914
0.001375,-1352,628,76,1708,2061,-713
0.004632,1272,-146,-169,447,-809,-885
0.001353,-643,-305,-17,-556,3826,-3391
0.001347,1312,127,-155,658,-4353,2393
0.004642,-950,495,-41,1941,2067,112
0.001352,766,215,-155,1078,-2477,2862
0.002440,-243,-70,-248,-962,1072,1429
0.001359,-236,-117,-184,-1537,2066,-569
0.003560,953,-84,-208,-2785,-2917,-816
0.002464,-551,-132,-104,-2733,2794,-5527
0.001354,1402,182,-201,-190,-5997,1298
0.003582,-916,148,-60,-482,107,2567
0.002443,-341,-95,-144,-1358,872,2165
0.001378,114,139,-75,-1235,-2535,-708
0.002443,-1365,414,60,1236,2787,-6499
0.003529,1957,-65,-305,418,1841,-495
0.001366,-697,-456,-132,-2482,-5043,3482
0.002429,138,-38,-88,-577,-1708,2830
0.001333,-940,373,-35,43,4486,-1323
0.004619,848,488,-238,515,-977,2210
0.002452,-762,437,-110,-1227,61,-1766
0.001330,-148,801,-47,565,787,-3212
0.002436,920,551,-223,840,-1996,-358
0.002436,-652,102,-131,-452,1169,429
0.002443,828,20,-156,-2768,-3046,-353
0.001386,-761,346,-29,-1935,-2203,-901
0.003542,-441,406,-15,-295,-2306,721
0.002437,172,407,-86,-940,1851,-3855
0.001344,-539,543,53,1005,-1828,-1321
0.002444,-43,194,47,1592,-4209,2174
0.003556,-456,-400,-106,-717,-368,-88
0.001333,-569,-34,-15,-673,997,-277
0.003505,281,573,-19,335,1235,438
0.002423,-17,594,-62,293,-5565,1771
0.001342,-1082,555,38,-27,-398,317
0.002439,-244,440,-41,-921,2986,-3158
0.002439,65,304,-51,-203,-1502,-2957
0.003539,-1018,327,81,344,-3830,-2465
0.001338,710,-3,-135,-1028,271,-1366
0.002446,-306,-107,25,-1402,-3016,2633
0.003526,-726,-6,149,22,-4184,2759
0.001368,-1960,13,150,-1378,2769,-1767
0.001371,-196,-17,87,-1614,-1426,-2452
0.003572,-356,46,155,-1450,4138,-867
0.002446,140,-285,163,-703,-3810,4168
0.002419,-988,345,266,6,-1574,1060
0.001318,-65,776,233,2139,674,147
0.002427,-749,340,283,67,-4106,1426
0.003547,-944,-226,220,-634,3685,-2675
0.001348,-780,474,257,-159,3305,-1528
0.003580,130,738,234,87,-4821,3505
0.002436,-462,-98,237,-234,5526,2001
0.001354,631,-665,226,-3320,-6926,3369
0.002448,-1125,420,454,-491,1096,-4309
0.004694,-245,387,390,1800,292,-1082
0.000262,-1365,-300,320,-2690,829,-1527
0.002427,140,51,290,-1001,1515,1091
0.002433,-585,361,502,-77,-2460,3466
0.003519,-556,35,466,-201,3226,-37
0.001352,-87,-176,436,-1596,1280,-1362
0.001331,-545,366,526,229,-467,1045
0.004641,47,573,501,1527,389,-58
0.001328,-252,291,458,-15,2204,584
0.002426,-183,557,549,897,-820,2733
0.001347,-636,548,517,777,4011,85
0.002486,174,-18,518,-1155,292,-1762
0.003524,347,-50,452,-2096,745,-768
0.001349,386,223,445,-1605,-3640,1182
0.002426,-249,513,587,530,920,-2568
0.002427,177,213,520,658,-413,1779
0.002460,-1111,190,585,-1949,-2051,-63
0.002478,-307,357,632,-147,6101,-6001
0.002437,329,394,667,1346,-3186,-131
0.001397,-293,127,503,1690,2349,-225
0.003533,753,-176,424,-777,-2331,3007
0.002456,-605,214,582,767,845,2039
0.002426,386,229,530,642,-2060,-119
0.002443,-499,370,492,1564,2855,-1866
0.002424,-562,348,499,-27,248,-4971
0.002425,534,369,327,1939,3167,1008
0.001354,240,-307,324,-1274,-4075,4482
0.003539,-65,-373,270,-1475,1516,-1432
0.002425,-40,372,390,885,-2612,-497
0.001346,-961,276,409,1904,1768,-1059
0.004628,359,-188,297,-671,-3380,1791
0.001345,-874,91,422,-1042,5168,-3936
0.001328,475,263,324,1415,-12,-8
0.002434,-948,66,359,1454,-2300,1059
0.003546,-161,-456,221,-629,5500,-2997
0.002472,595,-212,174,12,-2012,2532
0.001340,-17,319,225,2930,-4457,6686
0.001341,-916,150,213,397,3443,-1847
0.004598,118,314,62,702,3249,-849
0.001338,-527,-13,89,-407,-3442,1175
0.001345,-259,-206,44,-952,3662,-2387
0.004605,896,-403,-59,-1754,3239,8
0.001311,-7,48,5,-575,-3336,2618
0.002405,282,355,0,33,-3484,2188
0.002443,-977,74,88,-944,2566,-2340
0.002406,-324,97,10,522,665,-795
0.002414,-624,380,39,438,519,-2722
0.002470,-175,398,-33,917,5134,-1215
0.002471,1486,-239,-286,-410,-3117,7241
0.002468,-1173,-332,-113,-1311,-2785,3532
0.001354,-346,627,-142,1640,8023,-4044
0.003789,1216,720,-259,1056,-3968,-2108
0.002446,-1247,768,-94,1948,-655,621
0.001352,-275,31,-259,667,2009,1528
0.002434,444,-27,-424,-197,3587,355
0.002425,662,215,-374,117,-991,1847
0.003544,-214,185,-289,-932,-2442,-355
0.001322,-56,7,-382,-253,1423,-856
0.002441,76,263,-305,-214,448,-1572
0.002432,212,546,-285,859,-806,1114
0.002438,-409,467,-258,1921,-1594,628
0.003525,-708,83,-240,485,3010,-6057
0.001338,798,144,-381,2044,-13,-1629
0.001333,-450,30,-336,1207,-567,704
0.003527,1021,-196,-544,746,882,3038
0.002440,-351,263,-363,532,-4074,4118
0.001352,-714,755,-226,2078,1665,-1331
0.003572,470,447,-363,1098,2653,-3655
0.002459,-130,100,-346,-1123,-3322,-1861
0.003587,-696,304,-354,984,2235,-2907
0.000258,1061,245,-520,1889,-1947,1423
0.002434,-180,-15,-413,1532,-32,4046
0.002434,94,-201,-346,-173,-1910,1732
0.002500,-484,-33,-373,-1224,455,-1032
0.003526,-556,269,-332,-395,40,-6213
0.001351,-462,271,-356,1623,1807,-3780
0.002456,563,-115,-414,689,-2308,2471
0.002743,-16,-370,-418,465,-1004,4448
0.001353,-523,69,-317,-31,3430,1585
0.003522,129,602,-257,1602,-530,613
0.002478,-363,544,-226,3298,-1443,846
0.001338,-9,136,-170,701,-3596,-1098
0.004693,-520,457,-177,1924,6606,-4693
0.001334,1343,23,-346,2047,491,1468
0.001383,-585,-626,-297,-1830,-5752,4115
0.002447,-65,-132,-210,-377,1132,-1000
0.001340,376,410,-135,3311,-228,-372
0.003525,-1185,204,-18,1650,170,-562
0.002494,246,-337,-193,-645,-177,-891
0.001352,258,-323,-160,-331,-3664,2465
0.003530,-1112,-232,14,1020,2678,-223
0.002436,614,-202,-45,279,434,-980
0.001348,585,169,-35,1389,-284,1636
0.002440,-151,23,65,578,-3996,4243
0.003495,-653,120,129,857,1279,-1541
0.002443,416,345,97,1120,-811,-1472
0.001332,-257,225,52,2024,-190,1033
0.002451,-354,-475,-41,-1253,1325,-3613
0.003524,260,-39,93,839,-3592,1912
0.001337,-22,-34,78,1822,-172,2326
0.003555,808,-628,-85,-560,-825,3860
0.002445,-744,-175,94,-1256,-5550,4471
0.002438,-1624,484,406,921,5654,-3193
0.001329,958,310,204,1940,695,-2476
0.003531,-143,-66,188,870,-2641,-1814
0.001323,-224,-44,208,805,3972,473
0.002442,1281,-286,178,-402,-7296,7134
0.001373,-1476,-119,315,-57,2363,-964
0.004611,544,638,279,2444,404,-978
0.001341,-82,436,286,2583,-1056,-1969
0.001313,-908,56,335,1412,646,-45
0.004651,727,-312,157,-385,1527,-1517
0.001348,298,-178,104,505,-1408,-734
0.002433,-50,162,151,2598,-2891,3211
0.001332,-561,-184,169,1247,289,-598
0.003516,-201,-102,156,1315,1698,960
0.002482,-150,-225,242,-1325,2165,-1601
0.001346,439,-41,255,-551,-4149,-1611
0.002428,-981,340,339,2032,3156,-409
0.003587,212,-449,171,-117,2801,-563
0.001348,-64,-398,111,-396,-1054,3365
0.002423,578,-26,263,663,-2695,3088
0.002438,258,105,332,689,1771,-2670
0.002438,154,369,218,1645,-1517,217
0.002438,-535,233,212,1038,-2093,-771
0.002460,-631,-67,289,667,3032,-539
0.002432,801,-400,157,-1016,-57,-1607
0.002445,-86,-209,170,-557,955,-4156
0.002416,1190,45,13,522,-1167,1648
0.002451,-203,-273,143,-1000,-2896,3261
0.001374,-1213,18,287,33,1631,3363
0.003531,208,108,186,-1476,2700,-3384
0.002424,73,468,233,2228,-553,-2136
0.001342,-191,206,268,2112,-2557,1786
0.004631,188,-511,196,-1556,3888,-3140
0.001336,1490,-222,48,-55,-2167,3050
0.002430,-761,150,152,296,-1500,1897
0.001351,-351,345,261,585,384,-2949
0.003474,67,505,143,2118,1758,-2646
0.002424,-230,86,48,1412,-592,342
0.001330,189,-322,14,196,1269,-2403
0.003520,214,-273,-18,696,-987,990
0.002431,-89,-365,-125,-511,-217,233
0.001343,-224,-525,-197,-1071,282,179
0.002447,-559,53,-46,422,-1254,1282
0.003502,289,-70,-28,-514,265,-117
0.001317,-155,-207,1,-971,270,2465
0.003524,-473,-156,19,-1806,-105,-832
0.002472,-322,414,90,1289,2741,-1278
0.001302,610,292,83,2018,198,76
0.002424,524,-166,-55,97,-2789,2682
0.002438,-420,-88,-85,-1122,-2407,1774
0.003528,-635,158,-58,497,1535,-2537
0.001357,-150,285,-120,797,1792,-2204
0.001370,-12,-126,-209,-630,2125,-3477
0.004603,3,-166,-248,236,-3935,3041
0.001353,153,-249,-249,-1048,350,329
0.001343,-92,-176,-131,-37,-1250,3435
0.003518,-700,64,-97,-201,-223,2037
0.001351,-1022,76,-74,-1523,5671,-3628
0.003542,490,300,-112,545,-206,716
0.001377,79,-347,-130,-1488,-1568,69
0.002459,154,-32,-142,127,3055,456
0.003545,1021,113,-168,-1302,-2156,2562
0.001323,-1117,459,7,458,-290,1107
0.003527,619,420,-106,1337,-1818,700
0.002439,-892,433,-41,1034,2844,-5101
0.001348,-329,733,-17,2795,3505,-2280
0.002445,1224,-228,-333,-727,-1454,640
0.002459,-652,-636,-143,-2653,-4020,1930
0.002416,35,-89,-156,47,2233,-1112
0.003528,458,172,-212,878,-482,-1368
0.000237,-708,240,-187,1493,496,1781
0.004632,-558,-154,-103,-1840,-921,630
0.001363,-383,52,-16,264,2602,-3185
0.001332,476,360,-17,1193,2407,-766
0.003533,364,-164,-97,-989,-3302,1636
0.002447,-914,-291,-37,-959,2017,-1255
0.002425,669,178,-65,1410,1719,2211
0.001336,494,77,-119,-1029,-545,-693
0.002416,-224,364,-95,951,-2551,725
0.003516,-282,505,-47,1465,67,-1576
0.001322,-592,39,-33,199,488,-1407
0.002403,30,-378,-83,23,3275,720
0.002521,831,-724,-143,-2545,-2133,-3821
0.002433,-190,264,-50,980,-286,-2739
0.003511,946,7,-131,535,-4190,4362
0.001358,-1620,-519,-64,-1211,1505,5245
0.002431,18,-439,-70,-2266,1689,1503
0.002437,-997,623,219,-286,1725,-6390
0.002431,1637,632,29,2432,1985,-3917
0.002448,471,-574,-55,-1728,-6674,4938
0.002465,-574,-707,1,-2188,1855,3615
0.002419,477,311,81,-527,-648,1137
0.002452,-316,1099,158,3779,-1553,-1805
0.001334,-202,338,55,452,6014,-8430
0.003538,450,-219,-50,609,-4684,1530
0.002481,-509,-425,24,-2681,-231,-878
0.001331,1285,-156,-28,-220,28,1989
0.002432,-444,-96,35,-65,-200,262
0.003509,-839,175,36,486,-1604,1289
0.001331,-468,149,39,263,2950,564
0.002425,549,-598,44,-2914,-2937,333
0.002424,-501,-43,251,-1486,-49,-181
0.003634,548,201,85,-114,2199,-1611
0.002422,-249,163,66,227,3992,1849
0.001316,39,47,262,-59,-5756,5550
0.003524,175,315,228,1619,1095,-1647
0.001337,721,710,107,2013,3114,-2013
0.002417,294,290,51,528,-5882,-849
0.002429,-1903,-55,213,-341,1697,-893
0.001389,954,-527,-9,-2028,4653,-4601
0.004620,600,-328,82,-496,-3380,-458
0.001316,78,-1,144,485,-2149,1764
0.001330,231,-478,29,-2211,557,1398
0.004650,-393,-92,91,-426,-3717,6321
0.001347,-1989,228,272,-923,2704,-1867
0.002423,326,340,240,-661,7193,-7130
0.001347,1656,96,142,716,-9255,6231
0.003549,-2155,-454,390,-1555,3574,2443
0.002453,2422,-560,-80,-3304,3723,-1708
0.001343,-323,794,250,1380,-4689,4573
0.003613,-589,835,464,1880,-3755,382
0.002432,209,153,130,1175,3849,-3772
0.001371,-102,140,14,-105,3141,-4462
0.002456,-169,438,243,1473,-2731,211
0.002414,594,-105,122,119,96,-9
0.002439,418,-918,-136,-2014,1086,489
0.002424,-335,-24,50,397,-3631,2214
0.002466,-139,255,145,1325,3163,-964
0.002445,-201,-104,123,-1703,-1590,107
0.002439,142,-103,115,-2013,809,-3154
0.002437,-349,233,197,1008,-1350,1251
0.002409,-257,44,183,68,2926,1529
0.001352,860,-498,109,-2168,1837,-1552
0.003520,-59,467,222,791,-5519,3710
0.002423,53,565,155,2262,3495,-2631
0.001321,1093,8,-67,465,-2263,1420
0.003525,-1288,126,138,-943,-934,559
0.002424,-121,208,59,409,2850,-3214
0.002425,343,29,-21,419,-1803,-2947
0.001336,33,-289,-10,-461,2501,-3497
0.003544,1271,-452,-145,-141,-3030,3731
0.002446,-788,-201,-46,-987,-3574,5257
0.001335,-1404,36,111,-682,3833,-266
0.002409,367,84,41,829,4703,-3055
0.003515,489,16,85,-10,-7981,2951
0.001353,-1561,-55,166,-930,9658,-5098
0.002465,3336,-379,-193,-1622,-3095,4839
0.002437,-1510,157,166,616,-4677,5718
0.002417,-77,381,137,571,1803,-749
0.002662,1049,418,16,-556,2311,-2921
0.001345,-690,388,90,3081,-3932,557
0.003547,-1331,487,89,479,2141,-7362
0.002497,2104,-140,-222,-567,2986,-5800
0.001381,602,-703,-188,-693,-9997,10129
0.004653,-1681,-762,-102,-3194,4874,343
0.001344,508,297,-151,-194,3192,-2500
0.001326,-534,970,0,3158,-5481,3012
0.002423,-490,-418,-120,8,3166,-2392
0.003539,122,-698,-12,-1519,-7030,4329
0.002437,-254,307,-43,206,9722,-3460
0.001355,1022,14,-89,398,-2008,3684
0.001375,-1541,125,95,-418,279,-274
0.004610,1325,144,-165,-130,-1467,222
0.001328,581,204,-97,402,-1218,2560
0.001340,-857,150,24,-797,-1343,-1543
0.004671,-301,715,-60,2632,933,-1925
0.001372,-547,176,-158,1073,1912,-3735
0.002455,691,-571,-166,-358,1476,-1341
0.001386,327,-528,-125,-1947,-3807,384
0.003500,94,34,-179,566,-651,1449
0.002466,-83,-248,-232,-1095,-2523,4199
0.002440,-1813,-115,-25,-1090,2788,496
0.002412,246,105,6,19,748,663
0.002411,99,70,43,-1158,2881,-2943
0.001352,751,-142,-97,-420,-2277,597
0.002404,-310,88,-7,-766,-872,22
0.003488,355,250,2,618,3375,302
0.001333,204,292,-54,2173,-6566,6895
0.002445,-1412,414,86,183,2340,-3410
0.002409,202,646,4,717,6679,-9120
0.003575,1265,71,-108,1102,-5687,1111
0.001356,-336,-582,-117,-2336,-827,1181
0.002445,512,-424,-121,-918,2133,789
0.003526,-302,182,-33,569,-4344,2796
0.001354,-1047,186,40,1293,597,891
0.003572,-126,-384,-20,-1299,1399,-3348
0.001364,463,-101,37,-1610,1898,-3113
0.002424,-280,210,84,420,-1214,1699
0.002438,-165,-156,21,-1101,-890,3315
0.002424,-513,-275,95,-319,4901,227
0.001335,1226,290,15,1184,-2598,2628
0.003483,71,596,97,510,840,-615
0.002418,337,489,70,1489,-4741,-309
0.002438,-558,347,39,2045,-261,-621
0.001350,-694,-153,103,-703,5545,-4084
0.002443,1229,-213,-44,-394,-2978,-874
0.003522,-140,-250,11,-302,-779,-1403
0.001349,145,-285,17,-468,-1197,-433
0.002609,306,-169,-110,-26,1080,2820
0.002427,-940,2,-17,73,623,4069
0.002427,-419,36,68,-748,-5154,2065
0.002474,-1866,305,259,1014,6398,-7825
0.002451,2696,-175,-60,909,2040,-780
0.002449,-26,-573,30,-1738,-6470,7284
0.002472,-976,-90,192,-2368,645,1853
0.001332,644,410,146,272,2978,-1491
0.003579,329,587,79,1205,-4084,2467
0.002498,-549,405,177,-205,1707,-4411
0.001332,47,517,200,1329,-896,-3026
0.002390,64,300,78,2800,750,45
0.003583,-45,-718,-23,-1048,-190,1208
0.002485,163,-387,0,-1493,-52,-1145
0.001324,-173,84,94,2246,-696,1218
0.002402,-267,42,17,60,-1184,430
0.003549,-116,-335,-43,-2029,3072,-2078
0.001330,308,-96,61,-265,-4185,5279
0.002457,-1463,186,290,-1377,2661,-4614
0.003543,777,200,139,1798,967,-1531
0.001344,208,-130,63,398,-2200,3406
0.003531,283,-242,35,-1509,3063,1517
0.001350,364,519,175,2035,-3024,3960
0.002462,-686,582,178,1192,-1523,-374
0.002428,-824,238,85,824,6607,-5391
0.002454,1648,-320,-76,-501,-3760,-1213
0.002449,-1143,-16,178,-192,630,-3905
0.002444,1015,205,-36,1381,-621,1423
0.001348,248,-313,-122,-157,-536,3564
0.003574,-1085,-514,42,-1340,-1522,4400
0.002446,-973,170,178,-1126,4267,-2337
0.001347,376,354,144,517,2395,-6316
0.002434,585,-104,73,619,577,837
0.002445,-306,-586,121,-1274,-823,4518
0.003560,612,-151,68,-1375,755,1254
0.001345,-61,757,129,1061,1686,3434
0.002416,623,373,154,625,-6120,3121
0.003526,-984,217,241,910,2991,-4967
0.001364,483,770,112,1408,5757,-7375
0.003511,327,372,65,2591,-6351,578
0.001323,-315,-579,8,-1379,-884,-7
0.002457,1109,-1031,-113,-3149,5216,-873
0.003518,-118,187,19,-204,-7768,4911
0.001400,-766,785,88,2359,4294,-1646
0.001316,-141,-209,5,384,240,2223
0.003538,-810,-317,-16,-1016,-3884,124
0.001335,-198,372,76,1631,7169,-5386
0.003597,1260,-65,-69,1706,-1003,1836
0.002473,-688,-673,-46,-1360,-2742,1527
0.001301,27,95,52,-405,3384,255
0.002437,1207,272,-49,1274,-2287,3562
0.002468,-282,259,35,752,-2115,547
0.003522,-671,569,124,79,2510,-4219
0.001337,85,467,3,1591,1905,-3094
0.002427,249,-212,-40,811,-3494,2148
0.003544,-197,-618,-125,-1504,4907,-5291
0.001339,948,-146,-121,1150,-1212,702
0.002420,301,-159,-198,733,-6658,5385
0.002451,-1650,-508,-79,-1947,3962,986
0.002446,645,-213,-182,-2270,1654,1035
0.002438,-1189,591,121,103,-2080,-259
0.002448,310,357,27,2457,3363,-3758
0.002440,870,-520,-129,-1648,-1582,917
0.002498,410,-361,-56,-1214,-1624,5718
0.001330,-788,239,114,-481,1517,948
0.004676,750,869,40,4091,-334,-832
0.001337,-353,555,19,1662,-213,-3341
0.001329,-368,15,-49,433,-119,-3191
0.002446,681,-358,-155,-1142,-714,-980
0.003532,455,-360,-105,-2256,1103,383
0.001369,-178,140,-73,426,-2347,3365
0.002444,-541,455,-128,2928,-2806,2241
0.002512,-865,65,-79,1277,4340,-295
0.003533,371,-469,-81,-1707,-1802,739
0.001362,206,-35,-17,-1070,1470,-3637
0.002403,301,327,36,790,-357,387
0.002403,-870,99,36,864,349,1522
0.002424,562,-84,-124,201,1502,2756
0.003504,331,36,-5,-181,-757,1505
0.001321,249,565,38,3150,-2847,262
0.002416,-96,694,3,1137,1441,-5074
0.002430,-324,139,-51,411,-136,-1798
0.002431,-735,-378,-7,1083,-1481,194
0.001336,740,-405,-69,374,1986,-3799
0.003538,1025,-226,-101,-1209,654,-562
0.002454,-237,-170,-115,-477,-5827,5486
0.002472,-1091,-55,-78,161,582,4230
0.002439,-1059,151,89,-990,4806,-3603
0.001336,632,224,52,-1221,5648,-6282
0.003558,1338,-16,-7,1484,-8929,8337
0.001351,-2092,-467,208,-1404,2112,301
0.003522,1595,20,-54,-892,4559,-1835
0.001335,184,574,233,1896,-3945,3667
0.002439,-324,78,66,-253,-2698,122
0.003530,173,200,-80,171,3650,-4867
0.001343,-164,677,113,1821,-1654,-913
0.002427,-291,383,157,1724,349,-1192
0.002426,700,-314,-93,55,816,1375
0.001329,10,-354,-77,263,-3303,1962
0.003518,-723,-16,78,653,2630,-2695
0.002482,448,-37,19,1001,395,-707
0.001359,-444,-418,-18,-1451,-3471,1929
0.003524,-167,-174,8,-1484,2085,-301
0.002396,115,99,97,694,872,1831
0.002430,-710,186,143,416,-1296,-282
0.002427,457,-167,55,290,1322,-2721
0.002415,841,-3,57,1676,-3805,3599
0.002437,-366,304,178,1457,1408,428
0.001338,-262,421,108,1316,-2305,18
0.003476,-426,26,14,449,2196,-2103
0.002430,331,-318,-24,-556,456,-1681
0.002441,53,-217,71,-744,-1616,-2055
0.003515,-183,122,75,621,1404,-1382
0.001344,727,-158,-115,41,-3433,3401
0.001345,-913,-534,-21,-604,-286,3159
0.002439,-460,-76,28,-1005,1512,2117
0.003531,-466,104,76,-1055,1872,-3232
0.002460,-365,207,220,923,-1280,-1933
0.001338,469,-87,67,584,1898,1012
0.002434,844,-590,-65,-1045,176,4466
0.003517,-165,16,77,-882,-3879,5039
0.001357,-780,759,195,620,2526,-2633
0.002451,1241,567,57,3398,-1912,1260
0.002422,-863,163,216,661,76,-2577
0.002444,-391,327,155,-638,8015,-8726
0.003535,1082,202,-28,1484,-7079,1626
0.001360,-558,-533,-50,-1150,-1410,1615
0.001340,974,-970,-89,-3513,4287,-95
0.003530,-371,256,62,-444,-4115,3762
0.002430,-1609,951,104,3483,1345,519
0.002469,319,-146,-77,439,1810,-1098
0.002437,212,-575,10,-808,-3627,3713
0.001354,-1649,163,238,-225,3630,-3681
0.003523,2112,154,-60,2622,1439,499
0.001358,-484,-380,-25,-1391,-2150,970
0.002433,-30,-100,81,847,-864,3045
0.002423,629,201,120,328,1231,-430
0.002465,-517,504,64,657,1559,-3024
0.003510,375,645,9,1441,-3874,364
0.001361,-1010,-141,113,-777,2240,-2046
0.002426,69,-304,42,-338,4380,-2330
0.002435,1162,-224,-171,16,-3342,280
0.002449,-750,-45,-46,695,721,-520
0.003561,1555,-511,-198,-1620,-4835,5058
0.001354,-2514,-478,59,-2324,2246,2984
0.003488,-3,276,8,316,1692,-49
0.001324,466,379,85,437,3464,-3734
0.002445,310,13,182,-202,-3621,1003
0.001343,319,-216,-5,-2250,-1641,2664
0.003504,-64,-128,0,-156,4096,2290
0.002405,827,283,62,615,-4535,2707
0.002494,-838,803,205,1621,3306,-6279
0.001497,799,704,28,3141,-782,-914
0.001369,-611,-436,-37,-1589,-3280,403
0.004620,5,-517,-21,-1900,4692,-3871
0.001510,1797,171,-109,-281,-805,2270
0.002408,-835,309,-46,1383,-6749,5192
0.002396,-1333,3,-57,1002,3407,-1048
0.002423,-225,-426,-149,-1329,4739,-2208
0.002387,903,-41,-9,-745,-4596,-173
0.001342,-571,248,201,380,342,-1827
0.003482,155,-294,-104,-28,1725,1134
0.002398,-682,-275,-14,-758,-168,4001
0.001323,215,255,135,735,5165,-521
0.003489,1851,212,-45,1158,-5440,5006
0.002406,-1657,429,200,381,-2489,-4089
0.001298,664,480,10,2469,4836,-3921
0.003468,-368,20,11,-17,-3544,2028
0.002433,-734,-592,-1,-617,5546,-2915
0.002419,1650,-415,-94,-1772,-3087,-1681
0.002412,-561,95,43,-583,-3260,-1040
0.002387,491,-27,-78,565,-2022,3089
0.002435,-1123,-365,-77,-946,3492,5284
0.001312,-939,-34,51,-2174,-3418,3067
0.003502,-1006,635,200,1833,9360,-11571
0.002394,2610,-3,-91,2004,-1392,2205
0.001311,-981,-923,48,-3896,-5879,4893
0.003533,240,-303,-30,-1571,4008,1925
0.001261,556,671,94,-293,-3491,979
0.004560,-721,725,266,1813,47,-733
0.001276,761,201,23,-98,142,-947
0.001302,-916,136,-8,-477,4565,-5702
0.004564,429,645,101,2932,-4928,1209
0.001303,-172,-202,73,-506,2646,-2451
0.001297,838,-669,-140,-1269,80,1051
0.002410,171,-415,-124,-1102,-4786,3460
0.003490,-1824,278,119,1271,6940,-1424
0.001307,1551,283,-74,-203,-5349,1620
0.002419,-954,-61,60,-751,1471,-2039
0.003460,-335,-55,85,786,2527,-83
0.002402,958,-114,-5,-541,-4755,-518
0.001301,-938,116,164,320,5050,-1510
0.003489,1730,-16,-68,886,-2507,4652
0.002436,-653,120,80,1028,-3433,1131
0.001320,-296,457,132,1186,4177,-2912
0.004539,522,78,-6,334,1465,-599
0.001316,-162,-210,-38,-1076,-5770,-167
0.001296,-1116,43,23,-252,7112,-8087
0.003550,1914,47,-138,1687,-3806,3710
0.002438,36,-563,-80,-2457,-1053,1633
0.001357,-443,-325,-82,-1513,-2342,5285
0.002436,-1028,352,79,-1461,74,-623
0.001414,-1049,309,195,727,6274,-5514
0.004624,1570,-66,13,1307,-4437,3299
0.001379,-807,-436,132,-2153,978,1638
0.001358,1551,-33,-29,-1563,4822,-331
0.004658,-306,375,142,712,-3569,5350
0.001350,-564,623,292,745,-5752,2832
0.002441,337,149,115,-1134,9445,-8994
0.001343,844,482,1,2501,-3041,1651
0.003572,-1560,360,225,-505,-4681,-2478
0.002441,529,-115,17,531,8796,-6617
0.001367,2757,-758,-362,-2154,-9708,9069
0.004641,-2597,-331,113,-2981,647,-830
0.001350,-52,867,161,3439,2871,-986
0.001338,308,453,-64,2661,-3272,3524
0.003615,-1865,-704,-17,-3186,4452,-4928
0.002424,1773,-131,-100,21,116,570
0.001396,-909,311,254,1788,-2385,230
0.002434,-148,-88,68,1414,3324,-1424
0.002465,998,-451,-170,-1964,1419,-105
0.003578,191,12,80,-235,-5573,6056
0.001354,-1094,480,187,633,-627,-1089
0.001317,419,482,1,241,2800,-5331
0.003581,-184,323,34,1624,2965,-1635
0.002463,283,-316,-16,-543,-5547,4315
0.001359,-1570,-437,80,-1228,6638,-5121
0.003543,1959,-87,-162,1495,-1681,-351
0.001335,202,-95,-73,52,-4234,1239
0.003595,-1044,-304,-51,-1177,-1792,3737
0.001353,-519,-141,-20,-1521,2296,2680
0.002462,-880,87,175,-679,3629,-3077
0.003539,589,592,165,1485,-532,-415
0.001337,490,-214,68,-306,2395,-1484
0.003578,1027,-525,-74,-2184,-2966,4366
0.001323,-803,226,65,87,-1643,4323
0.002517,-20,635,149,1551,1519,-1215
0.002439,363,558,76,1068,2407,-2888
0.002437,-249,190,42,471,-2136,-2773
0.001330,-254,7,17,-707,-1086,-3050
0.002476,722,-282,-48,-391,2512,1214
0.003575,832,-436,-186,-1448,-2473,4783
0.002446,-1204,112,-1,-452,-2941,1373
0.001345,-1038,704,86,3056,3934,-1784
0.003611,835,-274,-153,-936,3588,-3962
0.002441,146,-463,-63,-730,-5121,4340
0.002434,-1079,-5,198,-862,1629,-657
0.001387,959,108,-69,438,3723,-355
0.003533,-238,-81,15,776,-3172,4050
0.001346,-193,143,133,134,1811,-1586
0.002425,1225,606,54,1925,-275,1082
0.002451,102,104,87,249,-6115,42
0.002461,-1342,194,145,531,3003,-3330
0.002435,642,23,-90,-426,2221,-3726
0.002426,-354,-194,26,31,-387,-3044
0.002501,749,-324,-62,-328,-3383,1251
0.002452,-27,-575,-98,-1386,3296,95
0.001355,682,-147,-167,-81,-4250,7606
0.003562,-2182,141,62,-1259,2513,-50
0.001330,-330,427,53,1585,-3641,828
0.003554,-477,139,140,-713,9953,-10783
0.002455,2446,-654,-133,-506,-2061,4030
0.001383,-1172,-344,136,-2629,-8624,6028
0.003534,166,125,137,-1194,7738,-3120
0.001324,46,742,94,1913,-3107,2635
0.002412,175,470,118,833,-419,255
0.002473,-587,314,213,483,-696,-1324
0.001415,-146,434,7,662,1584,-3254
0.003639,713,-27,-84,199,3666,-3320
0.002456,279,-308,84,395,-5875,4651
0.001329,-250,-225,-53,-163,117,-299
0.002444,48,-122,-128,1029,1830,-820
0.003525,-156,63,-58,-358,-1045,852
0.002482,-792,-18,24,-1343,-3279,-774
0.001389,-40,212,55,2121,3246,-2234
0.002428,-3,8,74,-583,1974,-2081
0.003483,-39,-195,-20,742,1449,-109
0.001354,600,-20,-2,1050,-5269,6469
0.002451,-478,75,48,318,4438,-926
0.002424,785,153,-5,572,-3258,1066
0.002423,-277,453,56,951,-3278,111
0.003536,-838,142,132,119,6123,-5135
0.001331,521,-163,-38,-1346,-1353,-2435
0.002411,223,-310,-119,-1218,1666,-1460
0.002394,342,-168,-17,-649,-6329,3182
0.002363,437,116,31,130,-399,394
0.003495,-1339,-94,83,1651,4739,3877
0.001318,-127,-341,-20,-2484,-4374,3319
0.001323,-1544,124,213,-2742,5775,-10411
0.004550,1782,258,83,3881,1765,2122
0.001306,409,-609,73,-1938,-2723,4626
0.001317,153,-303,-6,-2132,-149,2327
0.004565,-459,1026,178,1823,664,3780
0.001282,936,219,135,776,-863,668
0.002383,-833,102,227,586,859,-4171
0.001330,285,917,82,-95,3960,-8043
0.003496,529,550,18,2054,-3751,916
0.002403,-211,-899,-78,-1436,-3026,4166
0.001315,247,-969,-123,-2966,6167,-1246
0.004575,1108,502,-60,-145,-6941,1965
0.001302,-1969,1095,185,4591,748,415
0.001296,23,-364,-67,1759,4125,-543
0.003477,326,-585,-73,-1755,-4628,52
0.002400,-758,528,109,2594,4279,-2393
0.001322,1035,-198,-61,-432,-25,-1273
0.003496,-724,-419,84,-836,-2214,-217
0.002363,571,81,40,2290,548,4391
0.002379,80,-118,53,-1205,1747,1264
0.002401,176,467,99,78,-1851,-76
0.002402,-513,712,88,1382,-1795,-308
0.002381,-795,124,1,1048,6244,-4680
0.001324,1415,-407,-118,-1034,-2038,-691
0.004575,-777,-153,105,-195,-413,-809
0.001342,1239,-188,-102,535,-1777,-377
0.002437,-388,-397,-110,-1099,-2299,2555
0.003478,-980,-130,-16,-190,794,2780
0.001292,-323,96,34,-1361,1816,-524
0.002391,-437,306,154,1571,3256,-2121
0.002398,312,-15,103,12,-1737,-1718
0.001297,855,-205,1,-564,1983,318
0.003486,417,-404,24,-886,-3736,7905
0.002421,-1242,241,232,-1212,1176,-766
0.001269,1065,822,97,3644,2387,-3221
0.002487,-345,721,106,2760,-3687,-1801
0.003537,-434,-219,-31,-910,3740,-3313
0.002473,717,-521,-106,-3472,-2622,-156
0.002436,210,184,-10,-190,1711,-1048
0.001348,437,332,-24,891,-4746,3041
0.003529,-1068,165,-31,1556,3016,1374
0.001329,-9,-230,-117,-188,648,2085
0.001357,-269,-73,-14,-727,-2886,-1113
0.003553,-220,178,183,1215,3449,-5104
0.002398,960,-45,7,43,-668,-968
0.003542,-1037,-246,35,-344,1036,1331
0.001302,41,-46,5,831,1332,3818
0.002430,801,14,22,126,-2255,2218
0.002424,98,365,129,2442,-217,-1263
0.001382,390,297,65,-168,-1923,-1900
0.004622,-1350,356,85,823,1843,-3137
0.001308,589,-237,-26,648,60,-12
0.001364,-169,-651,-8,-1627,4350,-3104
0.003551,1295,-299,-116,-1818,-4695,1385
0.002442,-469,124,-39,-381,-1925,1191
0.001302,-171,9,-69,640,22,6093
0.002486,-1026,-228,-51,-2185,420,884
0.003536,-223,416,66,2213,1703,-2673
0.002468,-391,649,236,1377,-3482,-4034
0.001357,637,-475,-21,282,8185,-3397
0.003617,1882,-1017,-231,-2526,-8835,11246
0.003554,-2348,138,274,-2714,1127,175
0.000288,838,1213,171,3317,2561,-1224
0.002637,604,448,-93,1179,-3052,37
0.001420,-1081,-56,167,435,1282,-2840
0.003491,572,288,89,794,-33,-422
0.002459,-1,-65,-61,-307,3755,-4496
0.001346,727,-26,-144,2288,-6690,5022
0.002453,-504,-430,-33,-1198,1205,-1777
0.003504,-361,-162,45,-124,3560,97
0.001363,501,209,-118,-568,-3528,1307
0.003528,-1136,144,18,-92,-116,-1455
0.001335,368,228,96,1293,3337,-1974
0.002424,73,-240,-2,-651,-1779,-201
0.003522,-673,74,92,1606,-405,775
0.001333,1240,-167,-23,378,695,2307
0.002423,28,-100,162,652,-819,1701
0.003522,-437,341,153,-12,-2670,-74
0.001362,-449,508,47,1443,4389,-1953
0.002446,431,-256,-39,-1116,-2060,-866
0.001356,-367,-210,11,-1422,1754,-4291
0.003513,293,297,12,1214,-1260,-145
0.002496,1188,-184,-206,17,-2058,3220
0.001351,-975,-522,-59,-498,-2781,5243
0.003518,-528,-52,31,-1006,936,-200
0.002438,-1381,428,140,692,8041,-5884
0.001357,1412,168,-6,1688,-6288,1734
0.002438,-722,-493,165,-2500,3704,964
0.003541,1384,-654,-80,-1816,1348,3393
0.002428,-18,337,22,-352,-5763,5601
0.001372,-1425,972,307,1265,3788,-2768
0.003526,2120,141,-35,766,-2834,2798
0.002439,-1883,185,193,1077,661,-2496
0.001323,525,709,43,300,5716,-8335
0.002476,655,387,-39,1810,-5076,185
0.004655,-286,-909,-103,-1529,-1922,2903
0.001350,750,-884,-200,-3845,2580,-682
0.001330,-322,653,120,383,-3859,861
0.002470,-1210,1129,160,4992,2165,2207
0.002445,246,-680,-193,-1537,916,-982
0.002432,-537,-494,67,79,-5214,2246
0.002470,-709,490,275,1815,6712,-4942
0.003544,2035,-170,-136,477,2443,-1556
0.001358,-1450,-351,-39,-260,-4562,4822
0.001322,612,-25,13,-361,1895,2898
0.003518,366,1,116,-946,-666,46
0.002426,-209,696,107,1688,-3439,242
0.001340,-451,524,44,1518,5086,-3626
0.003577,-82,-114,46,140,-2157,-1086
0.001340,39,-401,22,-1169,1745,-3368
0.003516,512,-264,-36,810,940,-723
0.002445,1068,-156,-120,69,-5923,2445
0.001345,-1515,-244,15,-454,2370,2378
0.002434,-131,-239,-99,-970,1654,4409
0.003529,-539,-12,-9,-2638,-517,-2028
0.002442,-468,603,137,2013,1599,-3614
0.001323,1166,31,79,914,-1607,-751
0.001337,643,-559,-33,-1592,880,3532
0.004639,-757,-275,147,-2314,-304,3846
0.001366,450,606,88,1635,-3054,2598
0.002445,-625,666,193,2545,3057,-3623
0.001417,830,201,69,549,1850,-5949
0.003545,-10,-34,-17,-1572,-2748,232
0.002426,-22,-197,-94,-253,348,2242
0.001345,413,-342,-62,-1849,-295,1424
0.002424,-349,310,58,1035,-271,-769
0.003525,68,522,-32,3109,-2687,3512
0.001354,-1254,-232,-17,-95,2253,-3067
0.002439,704,-362,-39,-1153,405,-2210
0.004625,-247,217,134,-202,1486,-155
0.001329,543,-170,-3,-282,-1888,767
0.001318,-1155,-54,96,63,409,1316
0.003510,431,174,42,1389,3469,959
0.002433,1149,193,29,2013,-3277,5202
0.001353,-271,50,35,-468,-2408,-579
0.002440,-800,441,111,1744,4342,-5708
0.003519,784,338,10,670,-1577,-1511
0.001359,-505,-527,-20,-1375,1024,-2534
0.002434,557,-641,-80,-1634,-2517,482
0.002484,514,-45,-111,-1251,-1543,497
0.002419,-515,269,52,586,-1319,2903
0.003522,-678,-13,-104,12,2294,3115
0.001381,-1019,-103,59,-2036,-1382,-325
0.001399,-360,427,94,484,10460,-7528
0.003557,2036,4,20,1883,-11158,8264
0.002462,-1950,-705,201,-2769,2816,-1190
0.001393,2124,-397,-198,-1617,2474,2868
0.003528,-871,500,191,549,-3160,3381
0.001340,-444,667,233,1379,901,-1398
0.003505,712,473,-9,-91,493,-3155
0.001324,-825,283,123,-9,804,-2386
0.001389,698,68,28,3208,-1199,1976
0.004627,-287,-485,9,-2298,1869,-2400
0.001317,506,85,-76,541,2691,-480
0.002446,1066,-172,-129,439,-9876,6161
0.002429,-2884,19,138,379,6837,-4120
0.002448,2539,140,-174,-1104,-704,-427
0.002434,-1786,374,137,673,-5584,1116
0.001383,-492,-160,46,1085,5957,-3576
0.004650,1498,-409,-90,-1256,-1753,-1499
0.001335,-896,215,169,2040,-775,3579
0.001323,561,129,-11,1545,-56,4308
0.002466,-71,-94,27,-32,750,-337
0.004622,-95,456,88,1118,-2236,935
0.001356,-336,236,-66,723,3310,-2533
0.001398,328,-297,-83,-2050,-729,-4142
0.003531,-252,-38,-95,-647,1830,-3199
0.002440,1248,51,-134,696,-4592,3333
0.001356,-142,-432,-30,-1176,-1062,1526
0.001329,-881,-357,34,54,3032,3104
0.004613,-262,127,0,-1685,-2549,-75
0.001389,-1385,403,143,-497,4723,-5356
0.001320,815,-57,31,689,1974,1089
0.004645,1126,-725,-52,-2278,-3353,4054
0.001333,209,-128,1,-824,-1199,5530
0.002424,-665,619,204,117,3375,-165
0.001329,1246,598,84,2525,-6163,4001
0.003531,-1496,379,268,821,3405,-5271
0.002423,715,499,117,513,3897,-7899
0.001322,968,330,-10,857,-8197,685
0.004657,-1469,-512,27,-2046,2301,-2247
0.001360,1876,-664,-251,-1605,2888,2271
0.001339,44,-107,-47,-1715,-6800,4759
0.002514,-2439,985,269,3305,1773,-1450
0.003532,1089,213,-172,1093,870,-159
0.002464,-1083,-510,-35,-1760,3828,-3520
0.001311,1329,-61,-72,69,20,1139
0.002490,-1088,149,145,-273,-5151,323
0.003541,-250,-36,78,1792,4680,-3301
0.001347,1337,-410,-106,252,-745,1101
0.002433,-342,-11,133,495,-2100,4847
0.002432,-118,403,179,433,-2654,1487
0.002441,-630,562,51,615,3249,-2651
0.003515,505,175,-23,649,1283,-2497
0.001329,-428,-378,17,-465,78,-2497
0.001324,336,-145,13,349,492,-1013
0.003556,782,-265,-144,-302,-322,-1269
0.003547,116,-300,-128,-622,-5671,6033
0.001356,-1570,-195,11,-1954,2602,1566
0.002432,-195,162,-34,-150,1199,1340
0.001354,-797,353,88,-696,6625,-6422
0.003553,1451,-32,-11,361,-5603,435
0.001341,-590,-81,217,161,-1072,2772
0.002460,1477,-479,-42,-1009,1835,3250
0.003585,-1326,309,200,-98,-3162,4874
0.001393,-126,606,70,1812,4729,-3897
0.002476,985,563,16,2222,-1206,-4284
0.002453,-238,19,71,-240,-1679,-1618
0.002454,209,-517,-126,-2757,2852,-1701
0.002444,649,-49,-127,-1327,-4057,3328
0.002452,-694,356,114,1003,-832,1117
0.003507,-333,217,76,1754,937,526
0.001327,115,18,-142,902,2983,-222
0.001357,-438,-264,-54,-1754,-2183,205
0.003515,-58,116,125,610,2252,-1962
0.002445,522,-222,12,-1015,-750,-1913
0.001324,-47,-124,-8,403,-607,3635
0.003509,-567,-6,45,438,2166,1735
0.002435,850,396,124,2192,-1107,3905
0.002429,-315,338,198,269,700,-3233
0.001326,851,279,-8,1742,-4091,-68
0.003536,-1083,-15,47,-998,2425,-2784
0.002434,100,-255,42,-988,3714,-4285
0.001339,762,-187,-62,366,-3396,1112
0.004646,-127,-319,-68,-749,-2354,1503
0.001345,511,-316,-67,-1708,2328,-770
0.001314,-41,6,-13,610,-3181,6993
0.002446,-2583,375,180,518,3233,-385
0.003531,862,163,-123,1558,3042,-5936
0.001322,310,13,88,1856,-5235,2841
0.002443,-286,-662,73,-2410,5144,-1236
0.004644,1696,-417,3,-1631,-3019,5551
0.001351,-1156,446,157,-562,-2812,5061
0.001374,-426,657,131,962,1505,-1784
0.001329,713,550,191,1137,245,-1950
0.003525,-517,421,187,429,2156,-4840
0.002429,644,175,-82,2424,-3616,2535
0.002446,-537,-290,-38,-1309,1604,-2354
0.002442,447,-75,97,-7,1677,-253
0.001353,652,-281,-107,-284,-4321,1430
0.003524,-1290,-23,-30,-130,1110,-48
0.001301,776,200,-62,25,374,-59
0.002415,-772,145,9,-148,-1453,587
0.003523,-618,102,56,1018,1607,-1797
0.001329,676,-141,-22,513,142,-1797
0.003611,-46,-98,63,602,-290,818
0.001326,539,-251,24,246,-532,3471
0.002424,-491,250,80,2434,-15,2117
0.003521,-137,439,56,517,1124,-3023
0.001306,132,216,8,1035,129,744
0.002449,237,-455,-47,-2076,-975,-1316
0.002454,-260,-220,-39,-1684,2421,-6050
0.002419,96,530,-26,1481,916,-1452
0.002470,1097,-183,-131,559,-4916,5177
0.002458,-548,-925,-48,-2791,-1987,4467
0.002435,-1075,-23,84,-1271,1799,652
0.002433,-613,605,65,1215,2172,-3941
0.001320,221,266,79,911,392,-2110
0.004622,297,-574,64,34,2043,2437
0.001360,1050,-691,-80,-2825,-1791,4307
0.001333,-538,606,104,574,1162,1226
0.003528,576,675,171,1765,-6518,5543
0.002436,-708,-28,162,339,4579,-4109
0.002467,493,275,80,1644,-2559,-984
0.001508,-383,757,97,1178,2723,-7805
0.003597,546,-82,-1,1056,2242,-2980
0.002483,1258,-1013,-201,-3030,-6050,5087
0.001349,-1138,-382,55,-2874,343,1954
0.001308,277,982,77,3889,-7,2006
0.003527,-1045,498,108,1856,1471,-271
0.002453,-31,-288,-102,644,-2799,-249
0.002438,-505,-211,-7,-279,-833,-3205
0.001357,480,41,12,874,8450,-6564
0.003538,1386,-318,-122,118,-6727,4276
0.002402,-2613,4,238,-163,-5,331
0.001328,1881,-32,-16,528,1041,1391
0.004653,-115,-77,-14,290,-2179,2445
0.001344,-258,440,125,1119,-2457,1321
0.001336,-744,619,237,912,6474,-5723
0.002398,200,138,-9,1186,367,160
0.003538,174,-691,-170,-2187,-320,-1637
0.001337,688,-434,-3,-788,-1601,-362
0.002424,204,148,77,460,-1156,-1624
0.003524,176,-90,-144,-106,-183,3804
0.002490,-1395,-269,-83,-2302,-2489,5565
0.001329,-694,126,32,192,4792,-2538
0.002410,52,590,220,1892,36,-3756
0.003507,368,87,78,304,3749,-6867
0.001359,2092,-474,-171,-357,-5043,8849
0.002462,-1213,-729,111,-1714,-3115,7958
0.003543,-1038,336,221,-633,3127,-2031
0.001343,1255,1181,31,2850,2961,-3761
0.002429,-182,256,80,515,-5259,-3195
0.001350,-286,-295,60,-1497,1743,-2467
0.003528,661,-392,-93,-2374,1152,-294
0.002461,-25,303,-1,867,-3462,5579
0.001324,-338,147,-8,1155,1195,-25
0.002404,-308,50,0,1486,-2299,23
0.003510,-294,188,5,140,6875,-4374
0.002453,1253,-233,-84,-1076,-5882,3835
0.001326,-2106,5,240,-1087,103,-948
0.003541,1570,-108,3,-413,3918,-2072
0.002479,-630,257,180,836,-2036,2747
0.001297,381,50,9,1466,527,2519
0.003501,236,235,91,437,-1287,354
0.002424,-91,404,147,1641,-32,-2735
0.001338,484,270,-32,2623,-515,399
0.002485,-1044,-244,10,-1299,1480,-3246
0.003539,258,-201,-47,-520,2869,-4001
0.001344,942,-202,-109,518,-4486,1617
0.003531,217,-499,-115,-1047,-407,746
0.001361,-130,-219,-85,-1243,420,2227
0.002417,-876,345,-2,910,-167,3439
0.002458,-1254,284,146,-1149,-1934,-1157
0.002415,7,87,145,-506,8128,-9339
0.003539,1644,-201,-37,1223,-3839,4014
0.001356,-591,-424,100,-1181,-4732,5263
0.001348,-562,-371,131,-2703,5196,-645
0.002398,325,552,-6,875,611,2062
0.003526,241,604,95,1313,157,-1119
0.001337,-333,437,199,1278,-3541,316
0.002423,-212,93,-8,-107,5342,-3913
0.003525,1210,-152,-64,1127,860,-212
0.002431,-170,-174,85,211,-3743,2323
0.001330,-569,27,72,1217,3116,-1477
0.002431,1284,-285,-152,881,765,-302
0.003510,-810,-193,-5,-233,612,926
0.001315,329,-91,-73,698,323,1878
0.003534,614,-172,-105,-243,-770,2202
0.002412,-774,-205,111,115,4726,-3854
0.001281,727,-60,8,2587,-969,346
0.002372,570,-308,34,1083,360,441
0.002385,822,-541,-15,-132,5807,809
0.002403,1381,-237,-141,442,-7199,7557
0.003494,-1198,-58,107,-1070,4702,-4305
0.002442,1290,-143,38,-569,7436,-3962
0.002416,1121,-222,-12,-1690,-4990,-1453
0.001306,876,-196,-117,-1442,158,-482
0.001312,396,-323,-58,-1718,-2698,4968
0.004585,786,-460,-37,-3038,-2227,-1117
0.001283,311,84,63,-802,-473,2443
0.002431,260,-203,26,-2928,-18,-201
0.002388,527,-250,44,-3923,-475,-3310
0.002371,506,484,91,-592,1097,1702
0.002403,825,323,88,-1294,-2989,3868
0.002389,453,318,72,-1719,-1153,3045
0.002371,599,866,232,8,-205,-1918
0.002395,366,1277,334,3506,-2089,1038
0.001294,443,594,124,1026,-2407,385
0.003482,-198,383,176,1010,3349,-4014
0.002383,441,880,240,2810,507,-6425
0.001305,662,630,149,3047,-3641,-624
0.003470,512,-409,73,526,-1411,2828
0.002392,201,-726,27,-479,351,3928
0.002396,-1235,487,202,2107,492,-4135
0.002403,-138,1058,207,6419,7423,-5462
0.002401,925,-64,24,4130,-4400,330
0.002433,-1154,-835,7,2080,463,1470
0.002387,1,-649,-117,1479,6995,-2454
0.002392,1368,-298,-203,2626,371,-275
0.002397,-917,-277,-78,3609,-1938,1382
0.002419,-264,-564,-239,3088,5572,1011
0.002402,1255,-701,-362,1612,4227,2470
0.002387,-372,-458,-210,990,3085,2973
0.002397,395,-527,-315,1713,2624,-1542
0.002405,875,-829,-400,712,3742,-2184
0.001330,1200,-1234,-488,-9,6299,1064
0.003485,1467,-1298,-592,-1368,-1819,5520
0.003484,642,-569,-431,-651,2089,4172
0.001320,1545,-535,-463,-2283,4986,377
0.002406,852,-422,-339,-2332,394,396
0.002427,1105,-81,-364,-2052,3589,-2630
0.001374,2225,-94,-468,-1291,-1394,1522
0.003552,847,-211,-348,-982,607,1869
0.002457,2633,-219,-496,-1878,1328,2222
0.002457,1475,124,-306,-1954,-6524,2969
0.002429,300,864,-230,698,4202,-5888
0.001358,2194,501,-496,-2306,-477,-5534
0.002456,434,627,-370,594,-1521,-3463
0.002436,2308,81,-620,1648,-6270,7328
0.003531,-498,57,-464,-2985,2279,-190
0.001349,2902,459,-497,1277,-4490,-245
0.002440,-262,775,-239,2781,-5599,1637
0.003554,732,-152,-491,-1718,4580,-7312
0.001396,1749,332,-460,-1646,-6440,-1262
0.001349,-75,1388,-171,2953,-6093,3114
0.002530,253,818,-383,4260,453,-1606
0.003531,684,306,-470,2366,1064,-5034
0.002445,978,499,-403,3620,-7052,-1219
0.001357,-213,330,-317,2589,-2618,-4327
0.003546,1253,-126,-642,5159,-4568,2850
0.002470,-1765,-244,-380,1349,-3054,-1530
0.001329,-54,325,-430,3727,1400,-56
0.003558,146,-474,-526,483,-1114,1363
0.002465,-275,-884,-520,-495,-4490,-1118
0.001344,-106,87,-362,1882,2980,-1050
0.002445,742,-136,-478,1919,-5885,5791
0.002437,-1821,-716,-320,26,-1472,298
0.002445,-645,-387,-331,130,5311,-7769
0.002437,620,-1,-389,1413,-2692,-3286
0.003554,-1742,-267,-290,1134,-1966,3283
0.002458,-133,-1077,-477,-1610,-992,3719
0.001356,-450,-716,-334,-2186,2152,-577
0.002423,354,217,-239,209,-3439,842
0.002478,-1516,-106,-132,-230,489,-999
0.001367,-574,-435,-301,-928,1701,-421
0.004615,-427,-85,-268,-547,2334,542
0.001339,237,-111,-378,195,-1421,5618
0.001366,-623,-518,-397,-2014,-3161,3315
0.002459,-762,-457,-384,-1969,3234,-1452
0.003531,444,-116,-390,-1829,1085,485
0.001388,-476,-15,-330,-2022,-2035,4471
0.002450,-349,50,-194,-3543,-889,2516
0.003546,-234,540,-109,-2246,1169,1946
0.002450,696,743,-168,1050,-1949,2889
0.001337,-802,348,-50,-832,-98,-1249
0.001330,528,617,-41,228,1869,-2521
0.004605,1301,595,-89,387,-5244,486
0.001328,-929,711,118,2423,-250,768
0.002458,1306,430,-16,-380,-2001,-731
0.001330,-636,708,143,798,-1169,658
0.003531,-474,504,119,2060,-1377,-929
0.002431,-218,431,97,1531,2870,-8293
0.001329,725,769,101,4137,599,-2327
0.002429,778,-58,107,1979,-6486,3295
0.003524,-697,-719,126,1137,451,4398
0.001321,-4,-269,206,-718,1379,317
0.003531,-251,641,334,2059,1045,-2565
0.002455,-79,363,395,1820,-2636,-3471
0.001343,715,-299,212,1554,-421,-2771
0.003514,11,-337,293,-4,-180,-2759
0.001336,475,133,376,1767,-2637,-865
0.003519,-534,71,520,259,-2489,1836
0.002424,-350,-363,442,405,1993,933
0.001335,287,-218,438,-766,-1084,493
0.002443,-222,614,490,881,-217,-2235
0.002444,400,427,471,2170,-1417,-1645
0.002425,185,-484,454,147,-4302,274
0.002446,-885,-650,565,-1430,300,-3678
0.001308,583,39,588,163,-401,-781
0.003530,-514,-218,518,-310,3074,107
0.002492,-713,-271,553,-76,-4911,4567
0.001342,-748,317,677,1875,3048,-1181
0.003522,815,-120,503,1239,3399,-3128
0.002422,357,-519,507,-265,-5898,485
0.002468,-1641,-135,726,-1062,-49,-7011
0.001329,655,203,593,2109,2207,-161
0.003518,-237,-604,521,176,298,5016
0.002438,-512,-353,526,-400,-226,5071
0.001329,-15,453,581,-723,3214,-716
0.002427,-449,198,599,413,3733,-2616
0.003524,907,-283,411,-532,-5413,1349
0.001359,-685,-203,491,-1581,3089,-3703
0.003562,950,121,552,604,1457,3396
0.002442,94,-229,446,-1400,-6675,4873
0.001380,-1868,176,640,664,5918,-635
0.002446,676,146,518,1161,2388,-666
0.002445,-425,-282,488,356,1159,-120
0.003529,200,-56,517,-1230,508,-1141
0.001312,967,-27,463,916,384,-999
0.002449,-361,-152,589,1598,-6617,5948
0.003562,-605,-342,560,-703,7470,-1971
0.001348,985,-297,433,-2194,-1431,751
0.001396,-1742,506,689,-104,-1387,-2000
0.002625,537,356,439,1004,1754,-1417
0.002454,694,-264,273,375,-297,4253
0.003535,-67,-824,272,-2683,2128,3094
0.002445,-251,146,453,-2398,-4240,1022
0.001373,300,735,390,2861,2389,-3477
0.003533,-583,-89,376,-511,2653,-1011
0.001344,-217,-332,228,-2226,1189,-47
0.003526,309,115,260,-404,-1762,5601
0.001336,-131,187,209,-575,4467,2219
0.002438,277,44,283,-2048,-2083,-4996
0.002437,-148,790,344,3247,2379,-3476
0.002409,489,65,267,68,1218,-2360
0.001335,272,-337,121,731,-3757,2962
0.003572,-477,-178,102,-244,2963,2496
0.002430,-470,287,105,-479,2871,1697
0.002393,454,158,21,90,1854,-12
0.001438,-305,-219,97,-352,-162,-781
0.003545,1394,-313,9,-2733,3425,-5430
0.002423,1257,82,-32,299,-2687,2858
0.001333,-1682,213,165,41,-1995,2104
0.004611,205,62,29,149,4155,-2574
0.001330,-213,221,93,398,-1570,-863
0.001314,618,49,40,-750,960,-3356
0.002409,-301,-8,48,1290,256,-413
0.003511,946,37,-98,486,-3073,1595
0.001350,-316,-251,-73,-1382,783,-1913
0.002424,156,-78,-55,371,-2016,1422
0.002443,-602,184,-59,-160,1410,-1757
0.003593,-265,510,-71,1716,2689,-3501
0.001354,925,17,-319,2045,-4707,8214
0.002470,-761,-738,-297,-1681,1535,-1021
0.003525,787,-95,-299,194,-319,-1798
0.001350,-386,365,-236,761,-1015,-3009
0.002447,159,-481,-387,-1275,-823,-995
0.001409,302,-824,-440,-4141,-2546,-173
0.003499,-1029,152,-267,-1291,-2211,301
0.002402,-594,641,-210,2144,3396,-1019
0.002401,435,-731,-456,-1409,-179,-454
0.002427,-1022,-548,-330,-3359,-3927,-1499
0.001301,-36,263,-298,748,2916,-2664
0.003474,959,-263,-534,86,-3383,4391
0.002412,-1564,-758,-463,-3007,-654,1179
0.001315,-392,252,-457,-478,2620,751
0.003479,50,111,-498,-1184,-1680,2838
0.002387,-884,-590,-506,-2816,932,31
0.001318,613,-16,-572,-2788,-1138,-2437
0.003467,124,665,-503,68,-2813,1759
0.002415,-249,-71,-571,-1008,-2893,6596
0.001320,-858,-777,-538,-5095,1439,-480
0.003502,-325,373,-502,-1758,-1096,-1920
0.001312,-465,816,-402,-495,-1868,-581
0.004602,-415,-203,-416,-2658,2978,-1384
0.001324,1203,-365,-587,-2926,-6552,3754
0.001292,-1606,592,-331,98,1493,470
0.003485,1193,393,-532,551,-3156,3355
