timestamp,gyroscope_x,gyroscope_y,gyroscope_z,acc_x,acc_y,acc_z
1646822058.918560,3,-5,-8,4,0,-2
0.000259,29,73,6,21,0,20
0.000182,44,29,-13,16,20,-11
0.001354,-28,18,-23,8,-14,-6
0.003499,28,-67,-26,-12,34,-7
0.002371,-3,-33,48,18,13,-21
0.002356,-15,5,35,5,-23,28
0.002338,35,19,19,-6,8,9
0.002376,2,3,-13,22,-34,12
0.002396,21,-35,-30,20,-1,-17
0.002372,1,-21,4,24,32,-42
0.002368,-24,17,51,24,-18,-1
0.002353,1,19,19,14,2,-13
0.002365,-2,-30,-25,5,7,-18
0.003540,24,-102,-52,7,-10,-18
0.001299,4,-13,-30,31,26,-25
0.001314,-1,38,21,2,-5,6
0.003454,-19,0,18,36,13,11
0.002380,-19,31,28,30,53,-2
0.003458,-19,62,65,-8,5,12
0.001300,22,-16,0,-44,-26,11
0.002347,15,9,18,2,-1,39
0.003454,-26,18,24,7,14,23
0.001293,-18,29,8,-17,-2,26
0.002370,-24,6,-1,-14,-9,14
0.002383,-16,-11,21,-49,21,-32
0.002337,17,-8,-13,9,34,-3
0.003478,-6,-44,-11,1,-24,26
0.001275,11,-35,-10,-18,36,-40
0.002339,-1,22,26,31,-35,30
0.002338,-31,39,-8,-23,7,17
0.002341,24,-8,-48,-13,13,0
0.003421,2,23,-31,51,-1,40
0.001256,-44,18,-12,18,-13,28
0.002394,-13,-5,2,22,-12,31
0.003415,14,-1,17,22,25,9
0.001228,17,3,39,7,50,11
0.002350,-6,-31,-10,1,-31,-21
0.003435,-32,20,17,37,18,-19
0.001225,8,9,30,23,-6,-7
0.004495,-1,44,42,6,-8,-4
0.001236,-4,-9,12,23,23,7
0.001230,5,18,0,6,-14,-1
0.003418,-10,-4,-11,25,9,4
0.002328,-33,5,51,2,13,-15
0.002339,-42,27,3,16,-12,-9
0.002355,5,18,-12,9,15,-6
0.002327,6,14,21,-1,-5,16
0.002378,6,47,-15,21,-17,13
0.002342,28,-3,-32,54,22,-29
0.003420,-22,-9,1,8,-10,14
0.001241,1,31,-4,-14,-18,7
0.002323,-31,80,11,22,1,5
0.003410,-4,88,8,19,-5,-2
0.002340,19,-22,-12,-1,-2,12
0.001221,33,0,-1,41,9,7
0.002317,-21,-7,5,6,6,-5
0.003429,27,8,-38,-17,18,-28
0.002321,7,40,2,-5,-22,33
0.001251,-6,-34,-48,13,23,-1
0.003430,42,-9,-17,34,29,-23
0.002335,-43,8,18,22,13,-18
0.001282,33,26,-36,31,-6,-2
0.003411,-5,18,-1,24,4,-7
0.002347,-5,-36,-20,-5,16,-10
0.001245,-1,-18,4,16,-13,10
0.004523,4,7,6,27,14,5
0.001396,-37,-13,-4,-14,7,1
0.001284,9,-18,-37,18,-33,14
0.002404,0,-8,-22,21,-6,-11
0.003479,12,-3,0,-14,28,-17
0.002404,56,-26,-45,-7,-39,16
0.001294,-18,18,7,-11,-17,47
0.003511,4,-10,-12,-3,37,-10
0.002371,52,-40,19,8,-10,-2
0.001266,0,-30,18,12,-2,11
0.003483,-7,15,-4,-17,-6,13
0.002477,4,55,27,-22,-7,10
0.001488,8,-18,-16,9,14,23
0.002393,-19,-16,-1,-4,-44,14
0.003507,-33,-27,20,12,26,-23
0.001281,34,33,12,16,-26,-10
0.002446,1,-38,-25,12,5,-7
0.002370,-11,33,9,23,-2,-4
0.003500,-17,2,-17,12,-21,-8
0.001281,-6,-6,-19,36,27,-25
0.002396,-18,-16,17,4,-31,-12
0.003471,-18,18,10,-9,1,-22
0.001266,6,71,19,-23,2,17
0.002382,0,-39,-25,-21,13,16
0.003465,-5,-8,26,8,6,3
0.001255,2,-17,29,1,-8,0
0.003458,-17,-12,4,9,53,-2
0.002367,7,3,35,-3,-13,15
0.001280,-4,30,43,-5,24,12
0.003508,1,7,-15,-15,-3,-21
0.001309,-19,-22,-32,-2,-7,-13
0.003475,10,27,-9,37,46,-35
0.001268,-11,45,14,1,-18,7
0.002357,-32,67,18,5,8,3
0.003507,4,-19,-8,23,14,-27
0.001267,-8,19,13,-1,31,-5
0.002369,13,-14,14,-7,-9,-9
0.003494,-15,-24,-17,23,7,-5
0.001261,31,-2,-31,2,8,42
0.003450,6,26,13,30,-8,-1
0.001307,7,10,9,2,7,-23
0.002383,45,-40,-1,-12,-27,14
0.003473,-36,18,4,-1,37,-47
0.001280,-5,-26,28,-9,-11,2
0.003491,16,-31,-13,6,-45,33
0.002372,-1,-11,13,-10,6,7
0.001276,-13,-9,-28,42,0,-4
0.003466,-26,-4,18,-8,11,5
0.002355,27,13,33,8,-21,4
0.001266,9,27,13,25,29,-17
0.002437,-12,-36,-16,6,-12,-1
0.003502,1,-9,-11,18,-41,-18
0.002341,6,-1,1,20,22,7
0.001302,-4,-3,13,6,-21,23
0.003458,20,-6,-3,2,22,7
0.002380,2,-23,-16,8,-23,23
0.001287,-28,-28,-2,16,-10,-3
0.004566,-4,3,34,12,47,-4
0.001247,4,4,-4,-2,5,16
0.001308,-16,-36,-39,15,13,-9
0.002367,-17,77,37,27,27,-6
0.003466,-6,-7,-8,1,-7,46
0.001274,1,13,11,-10,-36,64
0.002330,7,-9,8,21,2,8
0.003448,27,9,15,23,12,27
0.002413,3,-5,-18,22,-27,26
0.001284,54,-19,-11,-23,11,7
0.003469,11,16,-2,21,26,-15
0.002347,-9,0,22,-3,-5,5
0.001244,8,22,5,5,25,17
0.004555,10,38,16,19,-29,24
0.001279,-1,-34,-48,8,31,-17
0.001261,0,4,-33,15,-41,0
0.004546,16,30,22,-4,-20,1
0.001265,-16,24,13,-9,15,6
0.001279,-23,-3,-12,-5,-16,3
0.003529,-3,-24,-41,13,-53,9
0.002373,-23,12,-13,6,44,-47
0.002354,16,11,0,35,12,10
0.002388,-16,-16,21,17,-57,-40
0.001425,19,-5,-16,19,43,-1
0.003457,-3,-8,-8,4,8,-1
0.002375,-11,-10,-23,6,-4,13
0.002379,4,6,-36,26,26,11
0.003579,-5,49,-9,14,-5,15
0.001277,-16,5,44,6,18,-6
0.002368,18,-5,17,11,-14,30
0.001267,11,34,35,1,-2,-26
0.003441,1,13,12,-1,15,9
0.002373,-36,26,13,30,-11,20
0.001294,-1,-17,41,20,7,0
0.003446,8,-16,-4,-6,20,1
0.002373,-15,-8,-19,19,17,16
0.001285,15,-52,-44,-27,7,-18
0.003459,7,-43,-16,3,-13,17
0.002373,-13,-17,-29,10,12,0
0.002366,61,-21,-7,4,-33,57
0.001338,-31,-9,11,21,-45,16
0.003456,-30,3,-8,6,36,-17
0.002372,-38,-43,-14,7,7,-17
0.001278,-5,-21,10,-15,16,34
0.003448,33,13,11,3,-5,28
0.002353,0,-20,-35,14,4,0
0.001287,-17,3,-38,28,-25,-19
0.004603,-25,43,-28,-18,2,-19
0.001266,-36,50,-8,16,3,-4
0.001273,6,25,12,-1,10,2
0.004559,-13,-15,0,33,20,2
0.001273,-31,-22,46,5,31,-7
0.002362,6,14,17,16,-12,-1
0.003469,3,-15,-21,-11,-4,10
0.001272,5,-11,-16,13,25,-7
0.002359,8,-27,-11,46,-9,8
0.002372,43,-35,-34,-5,3,-16
0.002381,19,-37,-17,21,-37,13
0.002352,3,-4,13,46,14,11
0.002351,8,19,40,-44,-2,6
0.003444,16,22,28,-17,7,6
0.001243,1,12,28,4,-4,8
0.002373,6,-49,-35,16,26,-12
0.003452,25,-22,1,7,-12,15
0.001244,-23,8,2,20,4,7
0.003455,25,27,10,21,-21,7
0.002367,9,10,-24,26,-20,24
0.001264,21,-34,-55,10,9,3
0.002423,15,-25,-30,22,13,-16
0.002380,-63,31,30,8,15,-9
0.002370,15,45,13,15,8,-32
0.002343,35,-72,-63,10,18,4
0.002342,-18,-10,-22,13,17,3
0.003410,2,49,14,6,-12,24
0.001246,-32,32,6,29,15,-44
0.002311,7,26,48,28,8,20
0.003417,-16,26,17,15,-39,33
0.002316,11,18,6,3,15,24
0.003417,19,23,36,19,21,42
0.001251,29,-28,-47,-3,1,-13
0.001254,-37,27,-3,47,27,-28
0.004504,33,32,28,14,60,-9
0.001247,-29,-54,-20,46,-5,9
0.001240,9,-44,-3,-13,24,21
0.004509,-6,-10,9,0,-4,-36
0.001226,0,-9,12,9,-13,9
0.002338,-14,-14,0,-6,16,-13
0.003421,-17,-32,-19,4,-5,3
0.001231,42,-8,31,20,5,15
0.002320,-51,65,20,12,9,0
0.003421,36,-17,-9,16,13,25
0.002346,-29,-1,-18,-4,-13,9
0.001269,32,6,41,18,18,8
0.003437,-29,47,-14,13,-41,30
0.002329,9,-11,13,-5,3,-23
0.001233,27,-5,-4,59,24,6
0.003427,-15,0,10,13,-23,-14
0.002315,13,-7,18,5,5,26
0.001238,-49,-6,15,2,10,18
0.003426,-26,10,12,11,-28,10
0.002333,-7,-47,-15,11,11,7
0.001238,17,6,-38,5,-2,-13
0.003420,-19,5,-5,-17,-6,-9
0.002337,20,-20,-17,7,-3,-30
0.002356,4,-22,-8,17,54,0
0.002322,10,7,16,14,-38,8
0.002347,-32,20,13,-13,-22,-7
0.002326,19,-57,-35,2,1,10
0.002332,28,41,12,31,34,-38
0.002339,29,-39,-18,14,-20,1
0.002327,1,-27,-28,13,20,8
0.002340,8,-27,-35,-5,10,-26
0.003437,-20,70,35,39,-7,-18
0.001236,-3,66,39,0,32,24
0.002351,-41,-10,18,-10,-40,13
0.003416,8,-54,-36,8,6,-31
0.001262,6,-18,-16,-21,-10,-14
0.003423,-12,21,18,8,-10,-7
0.002375,-11,-5,-20,25,22,-9
0.001251,27,-28,-40,-2,-16,3
0.003428,10,-31,-33,12,11,12
0.002326,-21,36,29,-4,11,2
0.001244,-27,-22,35,-3,3,12
0.003427,35,-65,-13,4,68,-14
0.002329,-3,10,0,17,-14,46
0.002334,8,-26,-28,0,18,-41
0.003427,-12,18,11,-6,11,-18
0.001244,7,-5,-7,-4,-38,-10
0.002332,-30,38,9,29,-8,-17
0.002339,-15,37,47,29,30,-14
0.003412,5,-15,3,22,20,16
0.001250,40,-54,-36,20,35,-4
0.002338,14,13,31,-12,-29,11
0.002343,9,-19,-1,-6,17,-46
0.002333,-26,0,-6,44,-8,37
0.002329,-1,-30,-22,5,15,0
0.002341,-11,22,-11,16,-5,27
0.002336,11,30,59,13,24,-29
0.003422,-6,-10,15,-21,38,3
0.001256,-7,-26,-4,-15,11,-12
0.002346,-30,-20,22,-24,-13,7
0.003428,-18,-21,37,-18,-6,-7
0.001242,-18,2,-5,-39,12,-13
0.003452,15,-1,-6,-12,-7,-27
0.002374,-4,-5,-21,-42,27,-20
0.001239,7,45,-4,-12,24,-8
0.003489,4,-19,-21,14,-18,-10
0.002365,-19,-10,35,15,-6,21
0.001242,17,13,-15,6,30,22
0.003450,-2,-29,-36,14,-10,2
0.002349,-32,58,-16,-1,6,15
0.002335,14,48,46,6,-14,-21
0.002312,-3,0,4,7,30,-8
0.002347,11,-35,-14,18,-9,15
0.002646,16,-59,-44,6,39,10
0.002404,18,-10,-38,14,11,29
0.002362,7,-17,-20,19,4,-8
0.002360,9,-1,-42,-10,13,3
0.002366,-15,17,26,36,17,-8
0.002359,-7,40,22,5,-29,35
0.002409,-32,52,48,15,35,-7
0.002359,-25,19,3,23,-5,11
0.002359,37,-8,-7,37,-4,-2
0.001265,-7,44,49,36,-27,1
0.003467,17,-47,10,15,17,-22
0.002366,6,-39,-27,6,14,-12
0.001287,-24,-22,-7,21,-18,30
0.003452,-16,28,24,5,41,23
0.002355,-2,3,22,18,26,-19
0.002346,1,6,30,4,-32,17
0.002383,-6,8,-13,-3,-13,10
0.001805,19,-5,-21,-14,30,-3
0.003471,9,-6,-30,31,12,19
0.001272,5,41,20,-8,-24,42
0.002382,-58,29,-21,7,10,-20
0.004879,2,-21,-3,16,48,4
0.000284,-28,27,4,0,-24,20
0.003479,-28,35,7,6,-3,-29
0.001275,-4,-6,-4,-20,39,-6
0.001268,26,-34,22,2,-34,22
0.004553,0,-50,0,19,16,-24
0.001269,-2,-30,-36,29,5,0
0.002417,-4,0,18,-14,-10,-30
0.003475,3,10,-5,56,-30,22
0.001256,4,-16,22,-6,-2,3
0.002355,31,20,40,1,1,-16
0.003460,2,-57,9,31,28,-12
0.001291,-29,-13,38,-5,-17,57
0.002364,-6,-27,-13,0,8,-8
0.003486,2,17,-13,36,-15,15
0.002399,5,63,40,11,-31,21
0.001266,9,24,25,7,-19,-35
0.002369,19,-38,-49,21,38,7
0.003477,12,-16,16,20,-48,12
0.001265,14,-1,7,23,7,15
0.003500,7,13,25,29,-3,21
0.002352,16,-3,27,23,1,-2
0.001251,12,-14,6,-16,-20,7
0.002343,-59,26,-3,31,2,5
0.003356,8,-9,-5,6,16,-4
0.001239,-25,-15,19,2,-9,1
0.002336,16,10,-9,31,-22,-14
0.003418,10,59,27,26,35,7
0.002331,29,-19,-4,-19,6,-4
0.001265,-24,60,19,20,26,-32
0.003399,21,-44,2,9,20,8
0.002350,-16,-55,-71,25,25,-21
0.001237,5,-33,-20,26,-4,9
0.004522,-3,-28,-13,-3,-36,17
0.001237,4,74,41,12,55,-27
0.001249,35,-25,-11,9,-40,21
0.004517,-20,-55,-65,-5,6,-16
0.001250,53,-73,-34,34,24,-5
0.001250,-66,15,14,-2,-17,-6
0.004499,12,-1,18,-5,24,-1
0.001238,-23,21,12,0,-2,18
0.002325,-4,12,-25,-2,-8,8
0.003417,-31,9,-16,5,-9,7
0.001245,3,-14,-27,3,-10,33
0.002323,9,-14,-47,9,28,16
0.003476,-33,-41,-35,43,-5,-10
0.002331,6,5,22,-9,-27,33
0.001255,-9,-4,2,-18,18,-3
0.003408,-4,70,45,11,11,-6
0.002347,-20,-45,-10,10,-10,40
0.003412,0,-2,9,-16,18,-12
0.001243,27,48,29,16,-20,38
0.002357,-45,-15,-2,-1,-33,-8
0.001287,-11,-39,-7,-1,56,4
0.003417,11,-29,-32,1,-9,41
0.002336,-27,30,-13,15,-9,-1
0.001268,43,-2,-9,-9,-2,-4
0.003407,9,-23,2,32,-2,16
0.002350,-21,-9,20,2,22,-29
0.003441,-18,2,-37,-12,-21,-17
0.001230,-6,5,26,-6,9,-20
0.002335,12,19,15,-4,-14,-17
0.003421,5,-49,-23,12,-49,-5
0.001238,0,-6,30,4,49,-3
0.002376,25,-46,13,-24,-21,9
0.003479,-30,-7,23,-21,-14,14
0.001274,-5,23,-6,50,47,-39
0.003510,-23,54,-9,-11,-10,9
0.001287,-15,37,-39,14,-9,-17
0.002346,14,17,-3,3,9,33
0.003439,-17,40,-8,10,1,4
0.001280,19,-9,-11,21,15,-13
0.003447,-9,33,36,32,-6,8
0.002399,-1,19,14,-9,-11,-27
0.001272,-26,-22,-2,5,-23,5
0.003452,35,10,-3,20,-7,17
0.002364,7,-23,-1,-17,70,-9
0.001247,42,-18,8,5,12,9
0.002425,-44,44,29,21,-20,20
0.003460,-3,-19,3,6,-21,-17
0.002372,41,-40,-24,48,-1,26
0.001280,-28,15,-18,13,8,-15
0.003451,18,18,-15,14,4,26
0.002365,-22,14,-1,5,-14,35
0.001294,19,-33,-5,-15,14,-52
0.004560,7,-6,39,-28,-23,6
0.001261,-25,-4,17,-2,4,9
0.001279,16,-31,28,11,25,-21
0.002414,-23,2,19,36,-15,-4
0.003439,-6,1,11,9,3,-17
0.001282,30,-68,-26,-4,-27,13
0.002344,-8,5,-15,18,37,1
0.003445,24,15,-32,9,30,0
0.002385,-21,12,-19,-15,-32,38
0.001265,-6,-37,1,17,16,-8
0.003443,-19,5,16,6,13,27
0.002410,24,-21,13,22,-11,3
0.001262,4,10,23,18,11,-9
0.002393,-24,25,11,2,-36,19
0.004556,35,-14,-1,25,32,4
0.001277,10,-38,-41,23,18,7
0.003472,-18,19,28,20,-14,48
0.001262,12,-6,22,3,31,-8
0.001277,33,6,-22,22,-19,60
0.003480,-26,28,-10,-18,-12,8
0.002367,-3,73,10,21,25,-18
0.002342,-36,15,53,17,-35,9
0.002326,10,-55,0,1,0,-44
0.002336,-6,18,4,19,19,-29
0.002318,23,9,9,1,-28,43
0.002349,-2,-24,-22,-15,-20,2
0.003424,-5,31,27,20,31,-4
0.001251,19,48,43,-20,32,-33
0.002343,-7,-8,-30,-3,-51,19
0.003435,-16,-43,-3,41,11,-13
0.001258,-16,-12,11,17,-6,-28
0.002324,0,-16,10,17,4,-9
0.003433,1,12,-10,-20,-21,14
0.001246,-25,9,-13,12,54,-7
0.002325,-19,-16,-3,6,4,1
0.003433,-8,-33,-50,0,-28,42
0.001240,-3,28,-20,2,-6,15
0.002329,46,57,2,27,18,-10
0.003427,23,10,-2,11,-32,14
0.002342,5,-24,25,-19,39,-38
0.001234,44,-1,19,20,45,3
0.003448,12,-15,-8,41,-98,63
0.002355,8,-23,32,-6,-28,-13
0.001280,-23,19,-23,7,60,-73
0.003428,-25,14,17,27,-64,69
0.002341,7,-64,-7,-23,23,-15
0.001251,31,4,58,-1,20,-3
0.004532,-21,58,30,-5,-30,30
0.001228,-1,43,22,5,18,6
0.001245,2,-26,30,18,-4,-34
0.004528,20,-43,-31,22,43,-26
0.001247,5,21,-33,19,-70,32
0.002343,-13,37,-5,11,13,-67
0.003433,31,-36,-11,14,58,-37
0.001241,12,7,-33,6,-74,48
0.002331,-45,63,0,0,-31,55
0.003441,-13,15,10,-19,81,-54
0.001228,14,17,16,2,9,31
0.002331,-6,33,6,81,-13,23
0.003425,6,52,25,6,-22,-17
0.002352,-17,-32,-55,4,-3,20
0.001259,13,19,-2,12,25,-12
0.003422,-25,12,42,25,-30,36
0.002394,32,-72,-21,-5,-23,24
0.001292,23,-10,-34,3,6,-21
0.003470,-9,14,-5,-41,0,33
0.002395,26,-55,-14,9,8,-11
0.001271,-9,-30,1,-2,-4,-10
0.003461,-1,31,20,-6,-13,-39
0.002372,-10,-5,15,20,-40,11
0.001279,-1,-34,-24,29,54,-8
0.002428,-24,44,58,1,23,2
0.003448,-16,4,6,1,-19,37
0.002367,-16,0,-15,-10,12,4
0.001257,-31,-2,20,-3,5,4
0.003472,-37,40,11,-32,-72,22
0.002386,-18,44,31,30,53,-47
0.001313,-15,-13,-11,31,-16,-25
0.004548,-7,15,-3,20,15,32
0.001294,13,-16,-20,-12,38,-20
0.001289,-2,47,-13,17,-65,5
0.002407,-26,-57,-55,-34,37,-17
0.003489,-5,-8,-3,20,-20,30
0.001285,12,-7,5,24,-61,13
0.002384,-15,-33,-21,16,54,-62
0.003469,36,-18,-18,38,31,-14
0.002360,11,43,11,8,-86,39
0.001290,14,-11,12,9,64,-24
0.003444,16,32,-36,2,2,-8
0.002355,8,-19,-4,-5,25,-6
0.001325,-18,-4,-32,-18,-15,23
0.004558,-10,12,17,-2,-69,31
0.001304,-21,-8,-25,38,52,-44
0.001274,18,14,25,-13,29,-48
0.003680,4,28,-7,-3,-65,65
0.001384,-7,45,15,32,110,-26
0.002414,11,-25,8,11,-28,25
0.003480,-35,-47,3,7,-56,57
0.001311,12,-45,-46,25,121,-62
0.003496,20,-55,-62,-4,-66,33
0.002367,37,-5,-9,54,-41,10
0.001259,9,-17,2,8,28,-22
0.002434,10,-53,-13,5,-53,29
0.003479,30,-22,5,-5,54,-14
0.002399,-7,-49,-24,-14,-30,34
0.001275,23,-15,1,-15,8,-48
0.002363,-6,-1,32,39,-35,27
0.003460,-10,44,69,15,16,20
0.001289,30,-17,28,8,60,-40
0.002351,4,-36,12,7,-31,8
0.004558,-5,-25,23,25,-24,68
0.000167,-23,-7,6,-8,3,-27
0.003483,-8,-13,-4,18,42,-10
0.002367,31,50,31,21,-71,42
0.001278,-52,-1,21,39,31,-34
0.002430,24,-25,25,-10,8,-19
0.003453,-17,20,9,6,-32,15
0.002373,-14,-22,-39,4,-17,6
0.001271,13,-22,-21,3,28,-9
0.003473,-42,82,22,14,54,11
0.002392,1,25,19,-9,24,21
0.001281,-3,-34,-49,20,-64,0
0.004590,43,-18,-36,19,-17,24
0.001354,23,-15,-43,-19,39,-20
0.001268,-5,-27,18,28,1,27
0.003610,-3,-27,-14,-12,-46,48
0.002392,2,-24,-25,11,40,5
0.001268,-6,22,-15,-9,-5,3
0.002379,-3,1,-20,-37,-26,27
0.003464,17,-2,-77,17,48,-6
0.002377,52,-10,-40,6,14,17
0.001274,2,-38,36,-3,-25,32
0.003470,-13,-21,38,9,37,12
0.002438,-23,22,6,25,-38,38
0.001281,-3,-6,-12,-5,33,-40
0.002365,19,47,3,16,-5,34
0.003529,-15,-25,-15,21,-53,-39
0.001303,-22,-34,-32,-8,62,-26
0.002376,-22,29,53,37,-52,36
0.003486,-17,24,3,17,35,-17
0.001281,17,-42,-27,9,57,-25
0.002376,22,-29,7,13,-18,-15
0.002387,30,-47,15,-7,-29,19
0.003614,14,-5,-23,10,0,-9
0.001290,1,-34,-35,-12,30,-18
0.002382,-55,36,9,-12,-20,-32
0.002418,-6,-21,-4,-7,-2,1
0.002393,20,30,4,27,67,-18
0.002356,21,6,19,4,-53,40
0.002350,9,1,1,14,-19,11
0.002378,12,-5,-16,38,5,-19
0.003501,-25,41,17,-32,-22,23
0.001262,4,20,11,-4,23,29
0.001299,-18,-34,-32,34,-8,7
0.004592,-17,34,-9,4,12,-26
0.001274,-35,16,21,7,-4,-32
0.002435,29,-4,-26,17,24,42
0.003449,21,-2,-2,8,-9,-2
0.002354,5,-7,-9,32,3,9
0.001286,16,-25,19,7,-11,18
0.003484,-2,-29,26,6,-20,-12
0.001271,-5,-23,26,28,37,-4
0.002373,-19,34,26,-23,-6,19
0.003520,10,-12,-13,28,-36,14
0.002362,-9,-9,14,33,29,21
0.001253,-19,4,4,7,8,-13
0.002418,7,-28,-25,15,7,20
0.003472,36,12,-30,16,-10,9
0.001283,-6,-4,-11,12,11,-22
0.004557,29,55,12,15,-12,15
0.001272,16,10,28,6,-15,18
0.001240,22,4,7,2,1,19
0.002393,-19,1,-4,22,28,3
0.003446,-5,54,17,4,-10,15
0.002374,12,22,-15,-5,-16,1
0.001284,-2,-44,-69,22,10,61
0.003476,-27,5,-22,2,-13,-37
0.002355,-21,0,27,9,16,13
0.001268,-17,31,23,2,2,-29
0.003454,12,9,-49,16,2,-30
0.002421,-2,-11,-64,-5,-6,28
0.001268,-3,23,5,16,37,-12
0.004575,42,-38,-21,13,-7,-38
0.001269,-26,12,0,6,-59,36
0.001274,-25,-7,-8,28,-55,8
0.003484,-19,46,48,8,27,1
0.002361,14,21,14,12,21,11
0.002370,2,10,-34,41,-64,20
0.001372,-30,-19,-42,36,64,-30
0.003504,29,58,25,44,2,2
0.002417,-13,52,24,20,-58,57
0.001288,19,12,-12,-16,45,-47
0.003448,8,-36,6,2,12,2
0.002394,-54,12,-16,13,-39,21
0.001274,-14,10,39,20,5,-51
0.004554,-4,-8,-8,-7,-7,-34
0.001280,-38,35,32,18,-37,55
0.001281,-35,-8,12,10,-22,22
0.002431,-25,11,-1,15,64,-33
0.003489,54,-47,-17,-28,-2,-1
0.002363,8,-29,5,21,-52,43
0.001266,5,5,8,13,50,-32
0.003477,0,20,17,16,-1,-2
0.002371,-19,3,26,46,-30,17
0.001250,36,-38,-13,6,17,-8
0.003433,8,6,36,-3,1,29
0.002383,-28,68,34,-1,-18,2
0.001300,-26,-20,16,23,21,50
0.005743,24,-57,-9,-33,26,-16
0.000183,21,-35,11,15,-15,10
0.001271,-5,-44,-45,8,11,41
0.003463,5,-2,-25,10,48,3
0.002369,-25,-5,-6,3,-9,-16
0.002375,6,-10,-23,16,-16,23
0.002371,-7,-21,-12,7,26,-23
0.002345,6,15,43,44,2,20
0.002366,-27,13,12,-10,16,0
0.001287,9,0,-20,20,-6,3
0.003484,-32,-7,7,36,-11,-2
0.002385,27,-26,-5,-5,14,-14
0.001300,-19,-23,-17,61,-5,-1
0.004570,19,-3,-20,36,-4,-2
0.001314,-21,23,3,15,60,-2
0.001267,16,7,-11,19,-30,1
0.003476,15,-10,12,-13,49,-15
0.002354,6,-6,14,0,20,-29
0.002367,-18,13,-7,0,-20,20
0.002397,6,-3,-12,11,27,-33
0.002362,49,-31,6,27,-8,33
0.002388,-20,-35,-10,24,4,17
0.002365,11,32,-10,1,-12,-7
0.002367,26,-35,-19,4,0,-6
0.002363,0,-15,-22,23,-13,0
0.001266,6,23,-10,27,-5,-2
0.004558,32,11,-1,11,-1,8
0.001252,-21,18,20,5,9,3
0.001281,23,20,16,17,9,10
0.003459,-3,-42,-9,7,24,-8
0.002392,-12,-18,-19,38,-29,17
0.002398,12,16,9,-5,28,-55
0.002395,-36,-13,-24,27,-3,22
0.002410,6,-55,-12,22,-37,33
0.002381,-41,3,11,32,45,-12
0.002379,21,40,14,-6,-5,7
0.002355,19,-8,-9,1,0,-2
0.002370,14,18,39,-7,48,-46
0.001425,43,-59,3,5,-9,41
0.004568,-5,-9,-4,11,-5,34
0.001282,30,-17,-38,5,32,-12
0.001291,-9,30,-45,-1,28,-23
0.003470,15,41,21,13,-18,33
0.002378,16,-23,-42,14,-4,3
0.002414,-6,-19,12,37,13,38
0.002380,-8,-13,-11,34,27,-1
0.002382,11,-11,6,37,-39,39
0.002364,-9,-11,24,6,-24,7
0.002367,8,30,-4,14,23,-4
0.003481,8,-33,5,-10,16,-24
0.001268,-7,-15,2,2,-55,15
0.002380,3,21,-11,8,-10,-19
0.002371,1,-3,-16,6,37,-9
0.002373,34,21,11,15,-15,11
0.002372,-23,12,5,8,-50,18
0.002385,39,-39,-23,-1,36,-13
0.002447,36,-16,-9,21,8,-15
0.001280,4,-1,9,11,-59,0
0.003470,26,-10,11,4,30,-47
0.002390,-3,23,-5,18,-18,-9
0.002373,-19,18,0,33,-28,4
0.002432,-10,-23,4,3,56,-29
0.002401,39,-9,-25,18,31,-14
0.002384,-9,-12,-35,15,-71,44
0.001326,-31,-57,1,19,-12,-50
0.004580,-1,-39,-36,8,30,-18
0.001305,-5,43,4,-14,-40,0
0.001283,-13,-58,1,-21,16,-7
0.003467,36,-26,9,-17,18,-6
0.002405,-40,64,17,25,-15,4
0.001246,6,4,33,-3,-3,2
0.003532,17,-78,-6,5,-21,-3
0.002379,-24,-2,-3,19,45,-19
0.002388,-11,-43,-13,17,-23,-4
0.001232,18,2,3,8,11,8
0.003498,-4,13,22,13,49,-23
0.002365,2,-25,-37,2,-3,-46
0.001302,-20,-25,4,10,13,-17
0.004574,-15,6,17,-6,8,-9
0.001286,46,-29,-11,-7,-14,18
0.001299,7,-31,-39,-4,-22,-4
0.003450,-22,2,0,8,-21,0
0.002390,-11,-11,-5,18,-1,-15
0.002366,36,-27,-28,11,1,-3
0.002360,4,29,25,21,-50,9
0.002386,-2,46,20,11,16,-8
0.002445,0,-46,-11,10,16,-34
0.001452,-7,-100,-48,26,-49,17
0.003459,10,-23,-33,8,28,-25
0.002379,-11,27,28,6,-7,-3
0.001281,-6,-18,-5,28,-39,-3
0.004598,-15,-7,-1,41,22,11
0.001269,-27,32,56,-8,1,-8
0.001254,11,-4,0,14,8,17
0.002440,-13,44,-12,-15,12,-10
0.003492,11,53,-1,13,-16,18
0.002372,-4,-31,-9,7,18,-26
0.001287,-6,-58,4,-21,6,-12
0.004576,-20,2,-15,20,4,19
0.001273,20,24,26,25,33,-25
0.001333,-23,-8,3,-15,3,6
0.003484,31,-11,-17,8,-45,-9
0.002370,-17,-17,-31,1,12,0
0.001278,-5,57,-17,12,39,4
0.004565,4,19,6,-8,-45,39
0.001315,-17,18,-13,-4,45,4
0.001269,-24,38,25,30,9,-2
0.002401,-27,72,73,-10,-29,29
0.003493,-3,7,25,-13,18,-15
0.002385,48,-20,-21,-4,14,-17
0.001318,-31,24,11,18,15,3
0.003432,10,25,28,8,10,0
0.002368,-5,-2,17,-1,-41,41
0.001280,32,10,-57,0,37,37
0.003490,18,12,-22,22,26,12
0.002370,-3,34,24,20,10,-16
0.001267,51,-18,-3,9,4,-17
0.004600,-27,-58,-4,-21,-11,4
0.001292,8,-22,14,-11,-16,-17
0.001273,-6,-31,27,24,-1,20
0.002389,-19,-2,2,19,8,-21
0.003472,-10,-8,-14,-6,6,-15
0.002385,-8,15,-15,-18,-12,18
0.001294,-11,80,11,14,-1,-29
0.003456,20,-3,6,7,6,6
0.002363,-8,-54,-37,8,5,31
0.001274,9,-35,10,21,13,-18
0.003442,27,3,4,23,2,30
0.002367,34,-20,-35,8,4,-3
0.001300,14,13,-6,-9,-13,-26
0.004600,-33,-37,-11,28,21,3
0.001308,-52,-1,33,8,-16,32
0.001293,-23,-3,14,5,-31,-22
0.002439,-10,-2,9,-9,28,-6
0.003459,6,36,11,8,-4,18
0.002366,5,5,-8,11,18,-15
0.001267,6,-34,-5,-8,-35,2
0.003446,-3,-23,2,-8,-1,0
0.002380,-23,-9,-17,16,-15,11
0.001266,0,32,45,31,10,-36
0.003451,-23,-6,6,28,2,-48
0.002373,-43,-1,17,11,19,-22
0.001325,-11,-61,-55,2,-10,12
0.003468,-1,-33,12,15,23,-11
0.002368,-3,-7,32,13,-15,19
0.001281,-32,10,38,-22,26,-6
0.003461,20,24,18,10,-12,-11
0.003466,34,-12,-6,-14,43,14
0.001292,-11,-17,-1,6,-49,7
0.001273,-7,-21,-3,-15,1,-5
0.003481,-13,12,-12,19,23,-22
0.002389,-13,-49,-39,-1,-26,32
0.001273,8,-15,-9,-17,5,-26
0.003462,14,-45,4,-5,35,-37
0.002365,15,22,16,16,-18,11
0.001268,0,-20,-31,-12,-7,3
0.004561,-2,-21,6,31,-29,-17
0.001265,-12,41,1,18,15,10
0.001258,-14,-19,5,7,8,10
0.004552,11,-13,-3,20,-6,-25
0.001281,13,-22,-3,-13,24,-32
0.002381,-16,37,-23,-30,-26,-2
0.002373,15,40,24,34,11,0
0.002374,-21,-26,36,35,-27,6
0.002360,-36,32,9,4,15,-26
0.002352,42,-13,27,5,22,4
0.002366,-10,-7,25,1,-33,17
0.002345,36,3,8,8,23,-18
0.002360,0,13,-15,-8,-4,14
0.003455,38,25,-22,22,6,21
0.001280,19,-21,-4,36,32,-31
0.002385,5,20,17,19,-29,-32
0.003468,14,-100,-37,30,9,-4
0.001286,-36,-16,-13,32,3,-28
0.003475,-11,-38,24,25,10,-11
0.001271,-3,22,12,33,-21,30
0.002353,4,30,31,29,-5,-4
0.002345,-10,55,14,4,2,2
0.002380,-10,16,7,-10,-11,-26
0.002388,-14,102,20,-1,-12,-26
0.002374,-32,45,2,-15,-5,-22
0.002381,-11,-31,-29,14,30,11
0.003449,11,4,30,21,-26,0
0.001273,26,-29,3,4,-14,-20
0.002360,19,-38,-10,2,13,2
0.003465,-29,33,13,14,-26,40
0.001272,-41,19,30,-3,12,-5
0.003458,-38,12,25,17,-28,0
0.001308,-34,-26,-24,13,-14,5
0.002375,-14,10,5,50,-16,-11
0.003507,-16,28,24,3,12,-29
0.001299,-21,38,19,-7,-10,-23
0.001273,27,-57,-4,22,6,-24
0.004555,6,-66,-27,-4,-28,5
0.001294,-1,-44,-18,-27,21,-24
0.004539,-18,8,22,9,31,0
0.001288,-19,-42,25,13,-8,-23
0.001272,14,-8,5,-37,14,-55
0.002373,5,-1,-15,-13,-11,24
0.003461,-1,-21,-30,1,4,-21
0.002369,-18,43,18,-1,23,-3
0.001272,-30,45,14,6,-24,24
0.003454,6,-22,-5,19,28,-1
0.002355,15,-5,1,6,-14,-6
0.001273,45,-4,-11,6,-1,-49
0.003468,44,-62,-3,-13,26,-5
0.002382,10,-27,-35,24,-38,39
0.001280,29,-31,-16,7,15,-39
0.002359,-11,-27,-8,7,4,4
0.003453,2,29,6,-16,-26,47
0.001286,-12,-41,-16,31,21,-5
0.002375,-17,28,16,3,-15,-26
0.003475,1,65,14,-18,-2,-6
0.002389,-3,-51,-10,-12,-22,-1
0.001252,-3,6,31,14,-3,8
0.003491,15,-23,-6,-1,-9,6
0.002366,-14,8,-19,-12,4,-7
0.001265,-9,-16,5,19,9,-31
0.002381,16,-29,-21,28,19,-21
0.003481,-11,-21,-9,-11,-16,-1
0.001266,-3,-30,11,20,9,18
0.003536,-29,-35,-21,-2,1,-20
0.002391,4,-11,12,13,0,-4
0.001251,20,-3,0,29,9,-4
0.003445,-6,36,34,12,-1,0
0.002359,10,14,-4,8,-8,-29
0.002388,-12,-13,-33,8,-20,-13
0.002339,7,48,6,2,-1,23
0.001261,0,3,18,20,14,2
0.003448,6,-37,0,9,-36,-9
0.002375,13,-29,2,16,-18,-16
0.001265,17,-21,21,-5,29,6
0.003477,39,-43,-19,6,-15,-20
0.002378,-46,2,-4,37,10,-17
0.002355,-10,42,4,-16,2,4
0.002347,-71,43,4,6,28,9
0.002358,38,-30,1,5,-36,13
0.002356,19,-9,12,19,7,-6
0.002373,44,-12,-38,12,-1,35
0.003468,-22,5,-27,-3,-19,32
0.001265,18,-40,4,24,15,-1
0.001319,3,-30,-7,21,23,-8
0.003505,-18,-17,-6,-11,10,8
0.002330,0,4,23,-6,9,9
0.001256,7,29,26,2,-17,17
0.004544,-31,-2,-5,-3,-28,-7
0.001279,14,43,-14,12,20,-31
0.002350,-10,14,9,4,10,42
0.002388,-26,-23,-19,24,2,37
0.002365,23,4,-41,4,-25,-20
0.002398,-21,17,-16,1,-10,14
0.002355,37,-24,-20,10,4,4
0.003464,-15,5,-2,27,-2,-3
0.001286,4,-48,-11,20,-35,15
0.001273,-21,39,7,4,-19,-15
0.004569,-23,-1,-15,6,39,-7
0.001265,15,-8,-25,-6,-9,2
0.001287,29,-23,-21,-19,-19,2
0.004560,35,-15,26,43,-23,5
0.001286,-26,-18,33,-7,54,-29
0.002374,-11,62,30,16,34,-47
0.003461,-49,43,10,3,-28,23
0.001266,5,-55,-4,14,13,28
0.002380,-25,-47,10,23,-23,13
0.003460,4,-3,13,10,-21,-23
0.002395,-15,-26,18,-11,-13,-27
0.001287,23,11,23,-28,-23,-42
0.002375,-6,31,11,12,15,-17
0.003481,-6,32,19,19,28,-44
0.001295,14,17,16,17,-31,-1
0.002360,-7,17,4,26,43,-29
0.003479,23,-10,-25,-13,-27,21
0.001260,-6,-8,-30,24,7,4
0.002385,33,-2,-13,16,27,-9
0.003462,3,-15,2,-3,-33,19
0.001271,-5,-17,30,5,21,-18
0.002392,-12,59,2,19,13,7
0.002389,11,30,-4,-32,11,-19
0.003456,-22,48,17,15,19,-37
0.001266,-23,-16,-8,8,-4,14
0.002358,15,23,10,4,16,-21
0.003457,1,11,-19,-6,-38,23
0.001277,2,-12,-14,-9,34,-10
0.002398,24,-49,-39,8,4,-28
0.003485,-29,11,-19,-9,-44,8
0.001315,-11,14,15,-29,-28,-28
0.003692,-14,29,3,-17,8,9
0.001288,1,-3,-41,-13,-24,19
0.002399,-29,-11,-6,32,14,-20
0.003487,-10,-11,-28,-17,-30,2
0.001257,-13,19,8,4,21,14
0.002416,-37,73,21,7,-3,15
0.003472,11,-39,-32,-14,22,1
0.002369,-31,-61,2,7,-48,49
0.001354,0,-75,-45,38,30,-30
0.002386,68,-13,9,19,-14,2
0.002420,-23,24,31,20,-16,-4
0.002378,27,-26,1,7,-33,-7
0.001283,-23,34,23,13,28,-17
0.004561,-11,-52,-23,12,-3,-2
0.001292,68,-99,-32,-4,-10,-16
0.001291,-32,-2,-5,9,-34,-7
0.004561,-6,-50,46,10,20,-46
0.001273,-3,-35,-4,15,-25,2
0.002375,-22,-32,-26,24,3,16
0.003439,24,-21,9,35,7,8
0.001258,-6,25,8,6,11,-26
0.002359,6,-13,-7,1,-15,29
0.003460,10,-14,-19,13,10,3
0.001271,-22,9,11,6,-11,-12
0.002353,-6,18,-26,10,7,5
0.003466,20,-8,-4,-26,-47,14
0.002367,-20,22,27,7,37,-26
0.001258,27,-5,25,0,-16,8
0.002424,-56,2,6,11,14,-21
0.003460,9,-1,-12,-9,-12,-6
0.001292,-1,2,-14,20,26,12
0.003475,35,0,18,19,-22,-12
0.002378,-8,-49,-8,-17,2,-32
0.001247,22,8,9,4,14,14
0.002376,-3,8,-6,-20,-27,-29
0.003461,9,5,-18,13,-32,19
0.001277,0,-34,-27,33,27,-15
0.002401,31,18,8,8,16,-18
0.002435,14,-26,-12,-13,-61,29
0.003446,42,-25,5,-1,-2,9
0.001254,17,-6,4,1,33,-12
0.002360,15,43,46,17,-32,8
0.003454,25,-36,17,5,13,-2
0.001280,12,-7,-9,-24,17,-27
0.003442,0,18,-36,5,-29,8
0.002395,-4,53,-11,30,8,9
0.001287,-33,9,-19,-16,11,-40
0.003468,-24,28,30,25,39,-10
0.001335,-30,22,-10,15,-16,21
0.002373,-3,-25,-12,5,40,-36
0.003501,-56,-29,-4,-12,-5,0
0.001288,-1,-13,-28,18,-23,16
0.003469,3,-22,-31,11,24,-2
0.002355,-21,34,1,1,4,-17
0.001272,-3,8,-28,-53,11,10
0.003453,10,-57,3,31,-24,6
0.003436,5,5,9,-8,-3,14
0.001273,-2,-41,-28,8,-4,-5
0.001303,-6,-14,2,4,0,-3
0.003446,-7,13,14,0,5,-31
0.002367,36,10,-21,-5,19,26
0.001258,11,30,12,-8,24,4
0.003438,-8,2,15,-15,3,1
0.002338,2,38,13,1,39,7
0.001290,-31,0,19,43,-4,33
0.003453,8,-62,-21,40,18,0
0.002368,-15,-33,-8,1,8,-12
0.001265,-10,-2,39,38,1,21
0.003445,-4,13,23,8,-2,-36
0.002371,-35,-12,20,-5,5,-29
0.002375,24,-15,-8,10,-6,-32
0.002374,-21,26,25,21,-23,21
0.002413,-42,5,-2,8,-33,-30
0.002357,30,-19,0,12,37,-2
0.001263,32,-9,6,2,-9,8
0.003460,-13,41,31,27,15,-20
0.002364,-6,-14,-6,2,10,-19
0.001270,-19,52,29,-7,2,-13
0.004583,9,-50,-28,11,-19,-9
0.001292,-1,-29,-14,2,41,-36
0.001265,23,-21,62,1,-11,7
0.004550,6,12,56,24,-40,25
0.001265,25,-20,8,-19,31,0
0.002358,21,-66,-11,6,9,14
0.003489,20,-23,-23,-16,11,-6
0.001256,-9,35,11,-13,3,0
0.002362,31,-29,-4,-18,10,3
0.003472,11,-31,20,0,23,-29
0.001270,14,-22,4,-7,-29,24
0.002396,-35,-34,26,-11,31,20
0.002345,-8,37,23,5,-2,10
0.003468,-45,48,11,54,46,-36
0.001281,-18,30,-27,26,-7,-8
0.002450,-13,-7,-13,22,23,11
0.003506,13,-34,-13,22,39,-42
0.001278,-26,-32,-12,39,0,5
0.003469,30,-32,-5,16,12,23
0.001295,10,-3,10,-16,35,-27
0.002392,12,-17,24,0,-45,-14
0.002370,-5,-8,11,-1,-6,-11
0.002385,10,-33,-13,18,51,-42
0.001279,10,-6,8,18,12,4
0.003540,-20,101,-16,14,28,18
0.002364,9,-13,27,-7,-7,34
0.002391,12,-27,-10,9,31,-27
0.003486,4,77,38,14,-10,13
0.001276,-15,13,14,11,-3,7
0.002383,5,-37,-26,17,40,-12
0.002386,-2,38,15,-6,6,-10
0.002386,0,22,23,13,-17,37
0.002370,21,-22,1,25,26,-23
0.001336,-15,-7,-30,-8,-20,-36
0.004596,15,-48,-12,-8,44,-26
0.001273,-23,-14,-8,3,-8,24
0.001330,-10,-16,9,-15,8,15
0.004599,28,-37,-17,32,11,8
0.001295,-7,56,90,21,-47,40
0.002385,7,10,15,18,33,-44
0.003479,12,-2,-3,9,15,-22
0.001376,-31,-10,-19,11,-5,-17
0.002358,26,-1,30,-10,5,16
0.002383,20,-10,11,-8,4,-20
0.003487,27,-59,-17,11,-31,-21
0.001290,-3,-2,-8,-20,-17,9
0.002410,-11,-7,15,24,58,-30
0.003446,-4,10,43,16,-5,3
0.001280,-11,32,-6,-29,-5,-3
0.002373,-47,-48,-20,2,17,-9
0.002390,-24,30,28,23,35,-18
0.002416,-31,52,1,5,18,-24
0.002362,-3,7,-16,5,-38,-6
0.002374,-36,18,26,-4,17,-29
0.001305,6,-46,-27,41,8,1
0.003453,-16,-45,-1,7,11,8
0.002345,11,9,8,8,27,-37
0.002385,-18,35,23,7,-33,21
0.002364,6,26,7,-6,25,-39
0.002378,21,69,51,8,-33,-19
0.002383,27,-76,-50,-1,15,-14
0.002388,-21,-77,-39,40,-30,-3
0.002353,10,28,1,-7,-22,5
0.002374,-12,29,15,25,29,-32
0.002373,31,30,-11,19,-31,42
0.003480,-9,52,0,19,-30,6
0.001272,9,35,-15,10,19,-56
0.001285,14,-26,-29,-24,-2,42
0.004567,41,-8,-26,33,-16,-25
0.001266,6,22,45,21,-55,13
0.002373,-16,-3,49,-6,42,-78
0.003468,22,-16,-3,14,-2,-20
0.001272,-10,46,-1,7,-23,38
0.002373,7,-37,-5,-12,33,-44
0.003460,-49,14,5,-5,-10,-1
0.001278,2,-10,-27,18,-47,34
0.003498,-20,12,15,26,36,-8
0.000243,3,-18,-24,50,19,14
0.004850,-10,17,32,16,25,29
0.001286,-31,51,23,-4,13,-24
0.001333,-17,-18,7,16,19,10
0.004544,14,-27,32,2,0,20
0.001288,3,-26,-17,-5,28,9
0.002354,20,11,26,8,-2,31
0.002346,9,52,40,8,40,11
0.002376,42,-73,-3,-7,-63,-3
0.002383,-19,-34,2,-4,-1,1
0.002386,-6,22,55,39,42,-31
0.002365,38,33,72,8,-15,23
0.002352,-9,84,55,8,24,10
0.002365,3,44,-10,-4,28,-15
0.003448,7,5,-23,-11,-53,5
0.001281,-20,-17,0,11,14,-18
0.002437,-12,-57,-12,19,-4,-25
0.002390,-15,70,22,27,26,-15
0.002421,-13,-33,-27,-6,-26,-6
0.003477,18,-39,-45,8,-11,-11
0.001278,6,-39,-41,28,23,-37
0.001250,6,26,20,-1,-9,3
0.003496,-8,-7,-1,-4,-15,13
0.002392,-14,15,3,-10,17,-10
0.001259,-16,21,4,5,4,-17
0.003457,9,8,-38,-10,23,-13
0.002375,-41,-39,-2,24,15,-36
0.002348,8,16,42,9,-18,-8
0.002364,-3,13,-3,-19,-37,8
0.002393,-34,31,-15,7,-19,-5
0.002352,18,24,7,12,-7,-7
0.002372,-22,-27,-14,13,22,3
0.003474,-16,20,-21,25,-15,37
0.001264,15,29,7,-7,48,-33
0.001262,32,48,32,26,-9,33
0.004542,9,-16,-24,14,1,10
0.001256,48,-7,4,-1,32,-8
0.001281,21,-53,-6,4,10,-3
0.004540,-8,13,16,3,-2,-2
0.001293,-13,-21,-16,14,-11,19
0.002346,-43,-9,12,6,4,0
0.003446,5,-19,-4,-3,27,0
0.001258,-3,-9,3,15,-37,7
0.002424,-33,-20,-16,38,15,-21
0.003443,32,-1,-1,30,1,5
0.002409,-28,51,18,-14,-6,-4
0.001426,37,51,-36,22,17,2
0.003481,-28,53,-24,16,8,5
0.002411,-8,-26,-36,-10,15,19
0.001273,-38,-18,24,-7,-6,4
0.002367,-4,69,15,17,-7,-13
0.003467,1,-13,-16,-5,17,-29
0.001288,1,-48,-39,42,23,10
0.002413,-14,-33,5,-4,5,-3
0.003474,-25,-13,-13,-22,26,-29
0.001256,16,3,8,26,20,-15
0.002340,-7,54,-3,3,-6,2
0.003463,-6,0,-1,7,36,-23
0.002343,9,-7,28,20,2,9
0.001280,-24,6,-9,-8,-27,-15
0.002383,34,-25,-12,-11,43,-64
0.003510,-19,69,37,23,-43,-6
0.001293,-12,2,0,-16,21,-26
0.002372,24,-47,12,-8,11,-18
0.003482,13,-32,1,6,15,23
0.001247,-7,0,4,14,30,3
0.003509,6,-2,-12,-1,-17,24
0.001281,-18,66,26,27,22,-14
0.002385,20,16,-2,-27,10,-6
0.003471,-22,-19,-6,29,15,12
0.001280,-36,89,58,21,18,-24
0.003472,-35,-28,15,45,28,-3
0.002359,9,-24,28,26,-8,17
0.001272,-22,-4,-10,35,12,2
0.003467,-29,35,23,27,-2,-21
0.002356,6,-36,2,31,-33,5
0.001279,-12,-7,21,18,13,-21
0.002433,-17,-7,-15,-4,20,-1
0.003445,3,27,21,-8,-7,11
0.002358,-9,7,-3,13,-14,36
0.001267,-20,-1,-5,5,0,-39
0.003459,20,-13,7,12,23,-10
0.002367,-5,12,24,-1,-21,13
0.001264,-35,16,-6,-1,1,-6
0.004569,-3,-11,-31,-7,62,-17
0.001288,-10,-33,-33,2,1,-11
0.001268,-6,56,-16,2,-6,-3
0.003506,-23,22,11,-15,11,-48
0.002400,-7,-37,0,-12,-33,-18
0.001271,-15,-6,34,21,9,-20
0.002398,13,40,-5,29,18,14
0.003498,-29,8,33,1,-22,1
0.002364,-10,9,29,26,-3,-12
0.001291,16,-51,-15,32,6,-19
0.003458,11,3,5,29,-27,-35
0.002382,-9,45,-7,40,-1,-21
0.001274,15,-20,18,41,2,8
0.005646,24,23,-3,23,-28,-14
0.000237,27,0,-29,-14,-32,15
0.001274,-24,27,-24,20,2,-3
0.003468,-14,40,51,28,24,-10
0.002339,4,7,10,19,19,9
0.001271,-14,-1,14,-27,18,8
0.002372,-25,-26,22,-2,-5,10
0.003453,-11,23,35,-4,7,54
0.002387,-21,-30,-33,-7,-31,-5
0.001272,19,-20,9,-6,-9,-11
0.003435,-11,15,17,2,4,-22
0.002377,18,-43,-16,28,-6,13
0.001280,-19,47,13,32,-3,-23
0.003556,-8,35,-5,-16,29,-10
0.002374,-7,52,-2,13,-27,-28
0.001280,16,17,21,-19,-1,-45
0.003432,27,0,10,2,17,8
0.002369,7,18,-21,16,-37,-17
0.001247,-19,14,-6,3,3,8
0.002442,-10,14,-2,25,-23,-10
0.003468,8,-11,-11,43,14,-41
0.002386,-34,-15,-16,16,-24,28
0.001272,8,-52,-11,6,21,-20
0.003474,-10,21,-11,-2,26,-36
0.002358,30,32,0,27,-17,-24
0.001261,-9,49,12,5,-20,10
0.004584,-9,20,7,-6,3,-4
0.001251,6,-38,6,0,24,-7
0.001286,-41,-29,-14,-4,-54,6
0.004566,12,-10,30,10,-15,17
0.001273,37,-21,23,3,5,-31
0.001253,-8,17,6,2,1,-19
0.003564,0,-3,-35,19,-25,-20
0.002454,-24,-31,-48,0,-14,-17
0.002386,-5,-11,-16,-2,-3,26
0.002390,-6,-15,-15,9,16,-3
0.001292,31,5,11,21,13,29
0.003485,-16,21,-4,-7,9,21
0.002404,-16,-6,17,-4,-10,1
0.002412,-9,-26,2,-28,-50,1
0.002381,12,-13,1,24,16,-8
0.002411,-11,-23,-28,42,22,-17
0.002365,6,-22,-4,0,-13,-2
0.002386,2,-2,6,-8,-9,12
0.002365,1,-16,13,38,8,-13
0.002377,-16,-3,50,-2,18,-17
0.001271,-2,63,73,21,-48,4
0.003451,-2,26,24,2,-14,-8
0.002343,31,7,9,20,3,-31
0.002372,-27,-20,-6,24,7,12
0.002350,25,7,-38,14,2,11
0.002383,10,-16,-11,18,26,-35
0.002454,-8,-20,-20,27,-14,7
0.002362,41,-42,-3,43,-8,3
0.002367,-57,17,-1,9,34,-13
0.002384,-21,16,26,-21,-28,-8
0.002369,-30,6,11,12,11,-22
0.002366,3,-23,-6,7,29,-20
0.002366,12,-26,24,19,12,17
0.001256,-9,0,53,6,-7,-1
0.003446,-12,26,53,6,-3,13
0.002357,15,33,9,11,-9,5
0.001322,17,-14,-38,-1,0,-7
0.003447,5,30,-36,38,3,18
0.002352,44,-8,0,13,15,-9
0.003473,-17,-19,-9,-7,10,-11
0.001265,7,11,-5,-10,-18,8
0.002338,19,-30,4,2,6,0
0.002359,8,11,-12,7,6,-29
0.002383,12,-28,-13,27,-1,-16
0.003514,-7,-47,-35,11,10,-18
0.001272,47,-7,-7,10,44,-45
0.002352,-4,8,9,30,-9,-18
0.002373,-10,2,-11,16,-14,17
0.002380,7,-30,-8,26,34,-31
0.002355,34,-42,-4,6,21,17
0.002347,-26,4,4,4,-24,27
0.002368,-36,6,-45,17,35,-27
0.003544,17,-81,-31,-5,-24,-8
0.001299,-1,-49,-31,-11,-25,-15
0.002411,27,-67,0,-17,19,-43
0.003458,-28,4,28,31,-51,27
0.001256,-41,2,18,2,-12,2
0.003478,12,-21,20,-18,11,-4
0.002361,-33,32,2,34,17,-31
0.001288,-36,-11,6,11,-10,1
0.002348,-4,16,11,0,16,30
0.002343,4,51,29,30,40,2
0.002354,16,-17,6,20,9,-24
0.002377,-22,38,19,7,-22,19
0.002363,31,-16,-13,7,22,-5
0.003518,-6,-1,-9,-1,15,-13
0.001270,18,84,43,-14,-27,0
0.002342,3,68,12,23,6,8
0.003771,26,-21,-59,13,1,10
0.001367,23,-52,-34,18,-15,-5
0.003478,21,-44,-23,24,26,-47
0.001310,30,-39,-26,22,-1,-21
0.003499,-14,53,-1,37,-11,9
0.001283,-45,20,-3,48,-13,32
0.002366,-17,24,-5,15,-9,19
0.001282,43,-42,-6,13,-5,-10
0.003498,-18,-40,2,47,-18,-39
0.002393,-21,38,7,13,14,-33
0.002421,-17,-5,-10,6,26,-40
0.002368,-9,4,19,6,-44,5
0.002377,-18,-11,1,2,17,-53
0.002369,-9,17,20,22,21,3
0.002356,-20,-20,5,10,-18,-12
0.003465,-20,15,4,40,47,-35
0.001269,19,66,46,14,-2,-14
0.002362,-6,7,-35,27,15,28
0.002365,-6,-38,-25,12,5,1
0.002374,10,-13,7,-16,-11,31
0.002353,1,-2,-8,9,20,-37
0.002369,11,5,-25,19,-46,-12
0.002371,-16,-30,-30,7,40,-4
0.003472,32,-22,-21,-5,32,-30
0.001305,-11,79,17,7,-35,36
0.002385,13,-26,-25,-12,-37,29
0.003456,-20,-22,36,2,7,-21
0.001270,-11,61,16,2,30,-26
0.003454,-4,34,-35,3,-12,25
0.002383,-30,-9,-10,20,18,18
0.001282,-5,-14,14,38,-13,-7
0.002367,16,-14,44,27,7,-19
0.002351,5,-7,3,38,-38,21
0.002386,17,-12,-19,14,-16,-24
0.002356,-39,68,1,5,25,-11
0.002370,19,-22,-6,34,-30,28
0.003502,-49,-52,19,32,-9,-13
0.001266,-4,28,-6,19,7,-21
0.002366,-12,13,21,15,17,14
0.003438,11,26,6,17,7,-2
0.001304,24,-37,-19,3,-12,-10
0.003438,-11,-35,9,36,-1,6
0.002363,2,-22,25,2,-16,-32
0.001277,-28,31,17,-4,31,-28
0.002340,11,18,2,7,-4,12
0.003464,-19,-18,-9,-9,-18,2
0.001247,17,5,3,0,0,0
0.003462,21,10,-28,12,24,38
0.001303,14,15,-1,-4,8,-8
0.003468,21,-24,-15,-6,12,-6
0.001308,12,21,17,28,-34,-8
0.002391,-1,38,20,-13,-4,-21
0.003474,-1,56,-12,5,21,4
0.002377,-6,-27,-16,8,-15,41
0.001304,-1,-39,10,-2,25,24
0.003651,15,-32,5,-9,-13,12
0.001296,-14,8,-10,18,3,-13
0.003462,10,-39,28,15,21,-19
0.001282,-48,22,-3,2,-33,-3
0.002375,3,-32,-29,15,26,-10
0.003460,-14,-21,7,31,3,-48
0.001266,-8,0,21,3,-27,-25
0.003470,19,-31,16,19,-35,3
0.001293,27,-33,26,42,17,-1
0.002361,33,3,24,12,-31,35
0.003454,-9,33,24,10,19,18
0.001274,24,-12,-4,-14,2,-8
0.002413,27,-38,-22,23,-26,-20
0.003475,-3,-11,-28,-31,-7,5
0.001281,19,31,-31,26,16,-27
0.003468,-9,-3,-9,30,-16,-54
0.002357,0,27,2,3,12,-28
0.001280,-25,32,-5,15,-31,-9
0.003525,-39,12,38,-11,39,-28
0.001275,12,1,8,40,28,-52
0.003538,-9,36,14,17,-22,-25
0.001290,6,-38,-40,31,7,-36
0.002365,8,31,18,22,-3,-32
0.003472,-1,14,0,22,2,5
0.001296,1,-4,26,49,-9,-15
0.002364,-29,2,3,38,14,-13
0.003486,29,-23,-6,0,-10,-14
0.001297,-47,15,17,18,17,-33
0.003501,26,-47,-17,40,-10,-27
0.001386,-44,-43,-16,15,11,-10
0.002407,54,-38,-45,13,11,-34
0.003480,8,16,-33,16,18,-20
0.001276,10,33,40,36,20,-21
0.003500,-26,30,10,14,-37,14
0.001259,-11,-52,12,7,8,7
0.002358,22,-42,-25,2,-4,8
0.003449,-20,11,20,0,-1,4
0.001281,-32,29,37,5,3,19
0.002354,17,24,23,7,7,-11
0.003469,-19,-24,-29,-11,2,2
0.001267,23,-88,-24,5,8,24
0.003455,-12,-6,15,3,-4,20
0.002389,5,12,17,8,-1,-5
0.001272,-24,23,30,13,17,32
0.003423,0,47,22,3,8,41
0.001356,19,-33,-5,-53,20,-2
0.003527,-3,-2,2,-9,4,4
0.003460,18,-17,-33,-28,4,4
0.000196,17,-3,1,-17,-32,26
0.003454,0,-21,-16,-13,30,0
0.002395,11,24,-14,-12,34,13
0.002385,18,-31,-19,-12,-42,4
0.002373,25,28,0,13,19,-10
0.001266,-6,50,31,4,15,-40
0.003466,-26,18,9,35,-93,63
0.001328,6,-28,1,26,57,-48
0.002369,-12,-37,-15,35,3,1
0.003483,-10,32,4,32,-20,-19
0.001280,-9,27,27,-10,-8,-19
0.003492,31,-37,-10,22,20,-52
0.002391,-17,-1,-15,36,-17,-42
0.001288,-10,13,20,29,-23,-24
0.003505,-8,56,-26,16,-14,-17
0.002369,17,11,-8,6,18,-7
0.002377,-6,-10,-2,18,-4,-15
0.002422,10,22,-13,23,2,-5
0.001273,30,84,27,43,3,-4
0.003473,38,-29,-26,13,5,-68
0.001302,10,-19,-21,6,-13,-45
0.002419,-20,-34,18,23,-17,35
0.003557,17,28,48,34,-11,-6
0.001299,-27,11,49,3,26,-25
0.003458,18,-26,7,34,-30,2
0.002369,-7,-4,16,-5,-25,-29
0.001297,-3,-41,19,11,19,-13
0.003489,7,4,50,29,-29,10
0.002358,-3,37,61,46,0,3
0.002363,-7,-16,5,23,18,-11
0.002377,-10,-47,-27,6,-26,19
0.001292,-33,-44,-24,15,40,-43
0.003465,-2,14,2,-22,-33,8
0.001328,-11,25,24,31,-12,53
0.002367,0,-10,14,-20,2,-29
0.003462,-3,-7,17,10,-8,-10
0.001286,21,-37,-39,21,-32,23
0.003469,-5,-15,-64,9,29,-42
0.002373,-15,20,2,30,8,-11
0.001272,-22,-13,6,32,-8,31
0.003458,-2,-24,14,-21,47,23
0.002355,18,8,-10,-1,46,34
0.002385,-35,5,10,-14,-20,28
0.002377,54,-13,32,-6,22,0
0.001272,-8,-12,32,0,11,-13
0.003441,9,27,33,0,-13,17
0.002357,-14,9,-25,-16,2,4
0.002380,-13,35,-1,-6,14,10
0.002332,0,-8,9,-8,17,3
0.001357,-11,-12,34,-12,-35,30
0.003530,-16,-28,-3,-25,9,28
0.002354,28,40,28,6,7,-43
0.001287,12,-13,-22,15,-7,-18
0.003446,4,-4,-48,13,5,-5
0.002360,13,-4,-34,-5,12,0
0.002352,-28,20,-8,43,2,7
0.002364,4,13,-25,31,24,-25
0.001313,-33,-24,9,19,35,-19
0.003491,4,-12,9,30,-11,-28
0.002419,-30,26,-7,1,21,-46
0.001272,26,26,-16,22,5,-25
0.003465,-20,67,19,39,32,-10
0.001289,4,35,7,8,-28,10
0.003474,20,-4,-12,18,-7,-1
0.002413,17,49,-9,8,2,-33
0.001298,-12,22,-24,50,-14,-69
0.003485,40,16,28,26,-30,-19
0.002383,-4,-35,-8,26,-13,-26
0.002354,17,31,5,35,7,-62
0.002361,27,1,-33,41,0,-35
0.002412,29,-16,-12,0,-8,-20
0.002367,46,-14,-9,16,4,-32
0.002384,-14,-18,-6,6,9,-11
0.002361,11,19,12,22,-30,2
0.002373,-33,-48,-54,-3,-9,4
0.001273,5,-54,-39,6,53,-21
0.003445,21,2,20,1,-31,26
0.002373,-21,6,-7,7,-49,17
0.001266,17,-4,12,8,22,-15
0.003458,2,-44,-41,26,-22,2
0.002345,2,1,-65,-26,2,5
0.002346,30,21,6,30,2,-6
0.002352,-19,2,28,12,0,24
0.002365,28,13,17,9,-13,-12
0.002358,-3,-6,-12,12,15,6
0.002432,13,6,5,-6,12,-14
0.002374,19,-3,-1,3,-47,-18
0.002332,23,93,31,12,-6,4
0.001266,2,39,13,14,26,-24
0.004535,11,-9,5,17,-6,-19
0.001312,28,-17,-14,-18,-13,-3
0.001293,41,-30,-14,-10,-29,20
0.004550,3,-30,-15,-16,8,3
0.001274,45,-18,-10,8,8,-14
0.002368,-21,-36,0,8,-25,15
0.003453,-19,25,2,50,50,-1
0.001251,9,43,42,23,8,23
0.003468,26,-26,21,-3,-34,52
0.002367,12,-20,7,28,20,-16
0.001257,1,49,70,28,13,11
0.002374,-36,105,8,12,-47,-9
0.003484,-23,-19,25,22,24,-20
0.002375,-9,-65,-17,-8,19,27
0.001279,38,-16,8,-1,-30,-22
0.002366,-17,-2,9,12,-21,-4
0.003448,8,5,20,-2,39,-48
0.001300,5,31,45,11,-13,-26
0.003481,-32,42,10,26,-7,-22
0.002364,26,-56,-49,1,25,-5
0.001261,7,16,-1,21,-2,-31
0.002388,19,-27,-5,39,-16,31
0.003489,-39,37,40,35,59,-56
0.001287,24,29,29,-10,-14,-11
0.002354,9,43,23,15,1,-47
0.002372,22,-19,10,16,8,-51
0.003475,13,-48,-39,20,23,-21
0.001297,40,-16,-4,-8,17,-21
0.002359,16,29,56,34,24,-8
0.003466,-12,15,33,20,-6,-25
0.001244,8,51,12,26,9,4
0.002387,-22,-24,-44,11,-19,-8
0.003500,-2,-39,-28,40,34,-20
0.001286,9,-29,13,-25,15,-19
0.003453,-9,18,10,0,-17,-8
0.001261,18,-3,14,40,3,-4
0.002386,-11,-24,38,-12,-13,14
0.003441,-2,38,25,6,31,3
0.001257,25,52,39,6,-18,4
0.003459,-18,12,-1,25,24,-11
0.002367,12,-95,-70,11,31,4
0.001272,-20,10,-7,10,-3,40
0.003445,20,16,-34,8,-17,5
0.002380,-9,25,-2,-2,-5,-32
0.002375,-16,45,-36,8,-20,18
0.002365,1,-7,-16,-21,29,24
0.002360,-6,-44,27,8,48,16
0.002360,28,-23,5,-2,-42,3
0.001273,-53,-3,0,21,18,-36
0.003447,10,52,20,27,0,-7
0.002367,11,-22,-35,11,16,32
0.001321,39,-57,-27,-9,12,-39
0.003456,1,14,34,27,-1,-29
0.002368,-29,-9,25,11,6,-43
0.001278,29,-12,-9,-13,-8,-7
0.003475,-51,-26,-12,-1,-36,9
0.003476,22,-11,-46,36,47,-21
0.001280,-25,-3,-33,12,3,-14
0.002388,-38,-24,-12,22,-21,48
0.002370,10,-49,38,9,-10,1
0.002338,-11,-16,-3,5,40,-28
0.002370,13,15,-30,24,-15,13
0.002403,15,10,-24,23,-3,-26
0.002566,33,-6,-22,-17,-16,-36
0.001314,-8,-26,19,32,24,-7
0.003496,11,-11,49,-37,-7,-9
0.002362,10,-58,-12,8,-11,3
0.001263,-5,5,-19,23,-9,-4
0.002449,29,-35,-21,17,-21,5
0.003494,-59,-13,8,21,-26,-6
0.002372,33,-28,-28,0,9,-43
0.001261,-5,5,7,25,-4,-10
0.003525,8,26,15,5,-14,-15
0.002351,0,7,-29,0,3,-12
0.001289,-34,11,-5,43,4,-18
0.002460,-12,15,2,23,-26,-14
0.003476,-47,0,0,-20,18,-51
0.001273,-5,-18,5,35,-6,-47
0.003517,-19,-30,-13,-7,-26,18
0.002390,14,-39,1,40,1,-19
0.001289,-4,-16,-6,27,-21,-23
0.003447,-20,49,11,33,-2,-11
0.002367,23,4,-13,28,-8,21
0.002368,25,-19,2,12,19,-69
0.002412,-3,14,-2,11,-2,-4
0.001276,22,-41,-33,3,-5,-20
0.003466,20,2,-27,16,-23,-43
0.002360,9,-9,-7,32,14,-34
0.001274,28,-67,20,0,-31,-8
0.003469,15,3,9,-8,-2,-16
0.002389,38,2,-3,-2,26,9
0.002381,9,-29,7,-15,-42,-7
0.001350,-9,67,30,-16,-53,45
0.003444,-9,18,49,-2,-15,3
0.002362,-25,-59,9,-14,0,7
0.001288,25,-66,-13,-7,-37,25
0.004577,-10,-13,15,-17,-13,19
0.001287,-34,-24,-19,-5,11,-4
0.001278,-24,1,10,-24,-41,42
0.003480,-33,6,18,-17,10,14
0.002364,28,44,36,-12,38,1
0.001294,-2,21,11,21,-10,11
0.002404,41,-55,-55,-12,32,-27
0.003478,9,-11,-12,-23,1,-13
0.003463,6,1,-20,28,-18,13
0.001278,12,-16,-2,-7,15,-19
0.002376,-21,31,-2,-13,-8,1
0.002364,61,13,2,-30,-15,6
0.001313,-12,-4,13,-1,-5,-42
0.002375,26,52,21,6,-18,-29
0.003466,13,15,27,48,12,-30
0.001276,1,-43,-7,38,35,-47
0.004575,14,-16,-8,35,-22,-15
0.001276,-33,24,29,2,-1,-29
0.001283,26,33,-31,47,10,-62
0.003469,-15,-6,-20,31,-1,10
0.002368,-15,58,1,22,32,-9
0.002394,30,-47,-21,12,3,-83
0.002388,-12,-14,4,44,-14,-33
0.001295,-10,14,-1,7,10,-27
0.003470,-48,10,18,15,6,-33
0.002401,2,-24,-18,31,19,-36
0.002401,-46,9,36,29,-31,-24
0.002380,32,15,30,3,-4,-12
0.002360,4,12,10,17,41,-21
0.002358,-1,19,32,9,-4,-24
0.002403,-9,44,0,7,-22,-31
0.002369,-7,57,28,34,35,-52
0.002387,5,-15,10,16,23,-16
0.001284,-17,44,28,44,-20,51
0.003471,-21,-11,-5,7,-5,-50
0.002374,-20,3,-13,28,37,-18
0.001305,-28,43,6,17,2,-20
0.003480,-1,-41,-9,2,-24,37
0.002386,-25,42,45,-14,10,-26
0.002378,43,-14,-15,37,24,-5
0.001304,-27,17,-21,-29,9,-4
0.003484,-25,-48,-3,16,-1,-10
0.002393,-4,-74,-31,1,17,-13
0.001270,2,28,22,-16,-4,-2
0.003471,-29,25,-27,21,24,14
0.002377,5,-39,-22,11,-12,10
0.001268,-7,-23,-2,-3,4,11
0.004593,-21,-64,-27,-24,-10,26
0.001295,-15,-33,-19,-12,43,5
0.001301,-31,-7,-11,-39,11,34
0.004565,6,-32,8,-56,30,23
0.001280,-25,7,34,-35,-21,78
0.002367,-14,15,14,-3,34,-7
0.002384,9,69,33,-21,1,34
0.002417,9,-10,-27,8,-39,52
0.002361,18,37,-6,-41,43,13
0.003468,-22,17,6,20,31,-1
0.000173,16,-34,14,-14,9,35
0.003477,-37,56,52,4,4,-29
0.002360,-6,30,1,19,43,-52
0.003450,-27,18,16,8,-14,15
0.001282,0,-50,-23,32,-9,-36
0.002362,-29,-6,5,47,23,-40
0.002371,-3,17,25,17,-24,-25
0.002412,-11,-40,-25,44,-19,-46
0.003469,-41,32,24,88,20,-21
0.001286,-29,33,56,12,-33,-28
0.001326,-50,5,39,45,-20,-46
0.003482,-7,-40,-19,42,22,-56
0.002352,4,-27,6,20,0,-13
0.001307,-29,-42,15,48,11,-47
0.003467,-26,16,35,30,23,-29
0.002428,-16,25,25,-11,-17,-39
0.002373,11,62,37,22,-24,-42
0.001346,14,-43,-8,25,-43,-19
0.003467,41,13,-14,12,37,-23
0.002354,31,15,4,28,-22,-8
0.001261,-8,-14,33,15,-7,1
0.002584,0,-16,14,-25,-29,2
0.003447,11,-7,-6,-8,-3,9
0.001258,-24,29,2,-3,-8,6
0.004540,-2,-21,7,30,12,-5
0.001315,-34,19,-11,-19,9,-21
0.001270,-8,20,45,-12,1,-25
0.003459,7,5,12,15,-21,39
0.002367,24,32,15,-12,6,-13
0.002353,19,24,7,-13,3,13
0.002366,0,-31,-71,-2,-46,8
0.002351,17,-6,-11,1,6,-6
0.002374,-9,-20,-14,-7,-19,9
0.002381,-12,0,-3,40,-32,55
0.003469,-73,-11,20,12,13,-3
0.001280,-18,-43,10,-18,30,0
0.002380,-6,-9,38,-2,-26,41
0.003451,2,-37,31,25,-13,41
0.001307,-17,-23,-14,-23,28,-35
0.002414,-19,-41,4,-6,9,-16
0.002393,-10,24,47,20,-24,31
0.002362,-25,-9,13,3,19,-8
0.002384,28,-3,-11,-5,23,27
0.002381,-32,-8,-24,-18,-6,20
0.001318,-32,13,19,-36,-21,15
0.003454,-30,-14,-22,3,20,-2
0.002366,-20,38,-40,-3,34,22
0.003475,24,15,12,-21,-42,38
0.001274,-21,13,-5,-2,10,17
0.002376,27,-15,-19,-32,-28,9
0.002361,-7,-14,-21,30,5,-8
0.002363,29,18,6,-13,26,-42
0.002366,-9,17,2,5,-4,-11
0.002354,8,29,9,52,18,-16
0.002371,-26,79,51,7,-23,-21
0.002376,14,10,-32,22,-11,-63
0.002385,12,-26,-52,19,-12,-30
0.001352,-2,11,-32,36,-25,18
0.003450,29,58,6,36,26,-20
0.002361,-15,75,39,2,-29,13
0.002370,2,-40,-5,31,-22,-61
0.002381,-20,19,9,36,-9,-14
0.002392,12,46,2,64,10,-38
0.002398,-7,32,32,37,20,-14
0.002356,1,-19,30,59,-5,-4
0.002362,2,-12,10,29,-9,-24
0.002367,18,12,-10,26,39,-31
0.001282,-21,24,-4,32,-47,-1
0.004586,14,-18,2,20,32,-8
0.001307,-20,42,47,-5,-10,-10
0.001268,20,-7,7,32,-9,-23
0.004546,-2,12,11,-6,26,11
0.001259,7,8,-6,-21,7,-12
0.002389,7,19,-6,-6,-22,-32
0.003470,-37,-20,-33,7,-2,4
0.001269,-3,0,-26,15,7,-12
0.002344,-5,14,6,-9,0,12
0.003461,12,-21,21,-7,32,-19
0.001286,17,-31,-20,-6,5,5
0.002362,13,-3,-11,18,-7,26
0.003460,29,-15,-40,3,23,13
0.002377,-19,14,-27,-2,-15,-3
0.001260,17,12,-2,3,23,-9
0.002394,11,-20,-33,-2,42,-9
0.003467,-15,24,17,9,-9,-15
0.001275,14,23,-9,18,-18,44
0.003449,16,5,-22,-5,34,17
0.002373,12,-32,-13,18,1,-22
0.001306,41,-30,-17,10,-19,21
0.002395,12,-1,15,12,13,-7
0.002438,-14,-11,5,19,24,-16
0.002384,-9,-21,-32,15,-20,-3
0.002369,2,13,46,18,-15,-19
0.002327,0,-8,11,2,6,2
0.003465,8,-12,-21,6,17,40
0.001304,21,18,-16,46,-19,12
0.003495,-51,35,17,-1,35,-14
0.002381,14,-4,7,-21,-20,12
0.001272,-50,41,-1,-7,6,10
0.002429,34,-30,-37,-6,-49,24
0.003470,-9,-22,-11,7,49,-2
0.001289,-12,0,-13,11,-4,28
0.003543,15,-44,-38,-19,-46,41
0.001287,-26,-30,12,-15,44,-21
0.002369,-1,23,2,11,-22,-23
0.003448,-6,32,31,19,-29,19
0.001264,5,33,27,25,26,-20
0.003491,10,-27,-17,22,27,-44
0.002388,-9,-38,-37,79,3,-19
0.001337,-47,-25,34,-10,-61,-16
0.002540,10,13,-17,22,48,-33
0.002384,-6,54,11,10,-16,5
0.003489,-5,10,20,13,-22,-19
0.001273,-37,10,-13,24,13,0
0.001276,-9,-10,15,30,18,-20
0.004567,-38,48,33,21,-6,-15
0.001271,-4,30,24,9,-2,-26
0.001267,1,23,-24,60,3,-34
0.004559,23,-5,20,24,4,-12
0.001280,-14,-6,-26,35,5,-29
0.002347,0,14,4,13,-1,16
0.003474,-1,-40,-23,19,-13,-7
0.001251,-5,4,8,30,19,24
0.002388,-55,28,16,-18,19,19
0.003464,-39,35,34,-13,19,8
0.002374,21,-27,29,-5,-5,-26
0.001270,22,-4,22,1,-30,35
0.003468,-14,27,19,-11,8,-21
0.002385,9,10,-28,-12,-6,30
0.001278,1,-54,-25,3,-46,16
0.002391,0,-58,-54,-21,-14,11
0.003507,-11,-18,-22,-8,2,23
0.001267,8,-16,2,-6,-29,45
0.002369,-12,2,2,-26,-2,-35
0.003481,-31,-13,-22,-6,-20,8
0.001281,10,12,-9,-1,-18,-22
0.002410,41,-26,-15,19,2,-12
0.002379,-8,17,-18,50,-8,-6
0.003469,12,-16,-11,5,27,-5
0.001296,13,24,-6,22,-20,-3
0.002310,-4,-4,8,17,15,7
0.003440,-12,-5,6,18,25,5
0.001289,14,26,34,23,-14,20
0.002389,13,-22,-6,16,33,-42
0.003502,-2,29,5,21,-10,-32
0.001271,8,28,-5,48,-11,-17
0.003463,-13,-4,13,36,41,-24
0.002389,-10,39,33,16,-37,11
0.001266,0,-7,-15,37,-14,5
0.003510,-21,15,37,19,-15,1
0.001280,6,-19,-32,32,54,-33
0.003453,-24,-11,5,25,2,29
0.002380,25,19,-33,-14,-31,10
0.001251,-1,47,-3,1,24,7
0.003453,-33,13,33,0,4,-33
0.002352,-8,-4,23,-3,-2,1
0.001257,-13,8,37,23,6,-5
0.003452,-8,8,-3,24,10,-23
0.002365,-40,5,-7,-4,5,20
0.002388,-12,49,29,3,-11,20
0.002360,-11,29,41,23,5,21
0.002374,-14,11,-4,-8,29,-23
0.002374,-18,27,-12,13,-9,21
0.001304,-28,33,18,30,1,35
0.004556,1,-30,11,24,40,-30
0.001280,-6,-11,-33,26,-6,38
0.001279,16,-16,-12,19,-16,5
0.003474,27,-14,-57,16,21,-33
0.002345,47,-9,-2,24,1,1
0.001257,7,60,-1,19,33,-9
0.003467,17,-41,-6,22,-10,11
0.002400,2,-27,-10,-1,54,-7
0.002360,-50,38,8,10,-25,8
0.001303,-14,-32,-4,-1,-11,49
0.003454,3,-21,12,-15,1,22
0.002352,17,20,14,0,22,-9
0.001245,0,6,8,17,11,17
0.003478,-5,62,59,-7,20,0
0.002381,-5,-44,-16,-5,-57,40
0.001286,43,-88,-45,-10,22,14
0.004555,21,-18,1,-1,-1,21
0.001270,11,-9,8,10,-46,18
0.001265,21,-44,-1,17,1,29
0.004541,53,0,-11,11,3,28
0.001279,11,-52,-4,-26,-41,8
0.002369,-30,24,9,4,20,-5
0.003447,11,-11,7,13,1,17
0.001272,-5,11,-3,-15,-9,23
0.002359,3,-17,-29,11,26,9
0.003451,12,12,-23,-3,19,7
0.002361,-16,7,31,20,10,-9
0.001265,24,39,28,2,-20,19
0.002366,-8,52,16,27,58,-25
0.003464,18,15,-7,41,-4,-21
0.001257,3,-1,3,17,-40,27
0.003518,-38,34,-11,31,58,-70
0.002345,-5,18,6,11,-3,6
0.001264,0,23,-3,28,-60,15
0.002395,8,-2,16,54,25,-18
0.003468,-26,-19,11,18,17,31
0.001275,38,14,1,50,-13,19
0.002409,-27,-19,-5,-2,-13,-7
0.003453,-22,-9,8,9,29,-52
0.002381,1,54,19,15,-23,50
0.001285,-34,16,-19,16,12,13
0.002348,-9,16,2,6,24,-7
0.003503,-4,24,42,-16,-15,27
0.001282,-7,-60,11,-11,-15,4
0.002353,27,-13,-6,5,6,-6
0.003455,-1,94,47,15,-4,29
0.001274,29,-20,-38,15,6,-4
0.002388,-20,-18,-19,33,-34,48
0.003461,17,-5,-3,10,52,-7
0.001286,16,-35,-15,-30,-12,8
0.002389,-17,-22,-23,16,-24,42
0.002361,5,22,-14,34,0,-48
0.003448,24,-32,2,41,41,-8
0.001281,-29,38,46,24,-50,41
0.002362,-15,14,0,17,10,10
0.003480,14,21,-4,17,17,-37
0.001268,13,70,33,23,-13,2
0.002395,-9,-13,-7,-15,-5,-1
0.003461,23,-29,-21,10,15,4
0.001275,11,-23,35,1,-51,31
0.003489,14,-26,27,20,-4,-26
0.001360,-22,14,-4,-5,-20,-13
0.002405,11,-21,-28,754,-328,-149
0.003477,145,81,-1,893,-876,80
0.001306,-111,55,56,1117,383,438
0.003536,202,-142,46,424,-2279,1506
0.002434,-619,-97,104,-492,391,-1661
0.001321,-28,61,116,331,1852,-2519
0.002402,108,-90,3,526,-3456,726
0.003516,-396,-191,45,-166,1204,116
0.002430,427,-297,-21,-263,-616,2069
0.001335,-467,-129,88,-468,-2314,331
0.001321,-225,90,75,422,1337,-1909
0.004595,94,-62,64,-76,-781,-1143
0.002439,-444,-107,125,234,-1807,1234
0.001316,-566,-24,141,789,-123,65
0.003509,166,50,92,1552,-1384,-430
0.001335,-147,-101,141,1115,-171,787
0.002468,-336,-319,149,-926,-2131,1675
0.001377,-664,-99,253,-704,-1665,176
0.003517,-513,161,294,790,-6607,100
0.002457,-1385,-104,297,1201,-1857,-1702
0.001335,-284,-648,36,163,2714,-2112
0.004623,-553,-681,-5,-232,-6947,3038
0.001372,-1857,-324,103,633,-6248,17
0.001350,-705,-706,-169,290,4032,-2837
0.002453,-74,-1093,-292,-2715,-2511,-21
0.003537,-1989,-330,-76,-1557,-405,507
0.001350,-1147,-98,-123,192,4188,-1199
0.003540,-510,-759,-363,-4489,2743,682
0.001363,-1073,-448,-373,-4522,1012,1566
0.003537,-880,300,-304,-3039,-486,1388
0.002457,-1140,580,-235,-1408,7235,-1330
0.001351,403,128,-401,-3359,-4504,5977
0.002459,-2385,571,-213,-2500,4207,-1029
0.001341,808,778,-276,-742,6217,-3790
0.003530,-422,619,-208,-522,-4721,3398
0.002437,-800,478,-260,-887,850,575
0.001373,124,605,-263,192,8536,-1029
0.004671,634,872,-118,1566,-8517,6486
0.001344,-1767,854,90,2378,6150,-3539
0.001377,2123,410,-248,1746,2637,-2137
0.002437,-162,306,-47,1886,-2730,2040
0.003536,-535,480,137,1979,-1432,-1605
0.002424,793,375,91,3314,5748,-3117
0.001329,718,56,-23,2721,-3628,1276
0.003531,-339,232,193,3181,-665,-1912
0.003524,791,224,204,3424,1943,-3295
0.001328,730,-182,82,3139,-2273,537
0.002494,-124,-411,142,2281,-2089,-683
0.002431,274,-206,193,3237,168,-1866
0.001328,292,-577,140,2571,42,-1952
0.002421,78,-901,73,1372,-2443,-419
0.002424,-356,-855,50,914,-612,-544
0.002416,110,-899,88,475,-948,-497
0.002430,-258,-954,68,-37,-1913,-442
0.002457,-565,-955,-7,-487,-1527,50
0.003546,-662,-1060,11,-1192,-1045,1087
0.001358,-607,-1049,69,-2119,-2094,2123
0.001349,-831,-832,118,-1875,-885,1525
0.003681,-655,-626,119,-2035,-2290,1246
0.002515,-1059,-494,152,-1929,-1405,-190
0.002448,-674,-541,144,-2041,-1577,497
0.001391,-1041,-539,197,-2589,-1778,1603
0.003577,-923,-402,232,-2791,-1415,1816
0.002437,-961,-152,323,-2455,-450,1392
0.001342,-770,23,358,-2053,-1207,1794
0.001338,-940,189,441,-1816,-474,970
0.004656,-661,255,451,-1274,-415,830
0.001349,-906,403,557,-689,-1950,368
0.002450,-1114,380,562,-323,2989,-1888
0.001343,-340,316,541,-672,712,-364
0.003561,-853,391,620,-163,-1460,2433
0.002421,-892,542,668,-143,2076,107
0.001330,-181,504,632,545,1646,-272
0.002508,-685,537,677,1147,-245,-232
0.003587,-632,469,619,1319,1937,-1945
0.001338,-409,497,646,1576,1954,-852
0.003520,-646,477,701,1665,1565,-45
0.001335,-438,420,657,2036,2020,43
0.003550,-306,297,595,2232,1881,-259
0.001339,-345,203,640,2279,1891,-842
0.002460,-427,71,598,2192,1063,-1398
0.002612,-277,-50,559,2364,2243,-1608
0.002433,-240,-191,534,1749,493,-555
0.002514,-408,-264,523,1558,1110,-984
0.002634,-314,-286,465,1655,1149,-934
0.001405,-304,-419,376,1504,782,-730
0.004616,-311,-525,334,869,1032,-585
0.001325,-168,-485,311,543,634,-219
0.001310,-246,-406,264,551,293,41
0.002414,-345,-369,263,525,1609,212
0.003518,-129,-557,232,-349,404,791
0.001337,-305,-500,232,-515,1163,238
0.002418,-28,-300,228,-321,560,227
0.002432,-84,-296,229,-252,1048,6
0.003562,-11,-276,237,-533,184,611
0.001315,29,-207,223,-404,768,837
0.002461,123,-234,234,-589,-297,738
0.003511,-51,-138,206,-392,731,-9
0.001334,210,-121,242,-370,-164,784
0.003524,-16,-153,241,-466,270,917
0.001349,14,-70,216,-579,484,523
0.002457,195,-29,213,-452,485,164
0.002407,181,-6,146,-255,-389,607
0.002392,60,15,106,-172,27,141
0.001310,28,52,134,-216,415,-252
0.003535,42,141,105,59,-113,203
0.002394,69,110,73,168,-211,391
0.002401,-131,150,23,175,427,-84
0.002458,-32,201,4,495,213,239
0.002401,-36,141,-25,605,178,563
0.002421,-84,127,-43,570,406,301
0.001349,-121,103,-100,560,300,-88
0.004631,-162,144,-114,820,128,-100
0.001366,-144,41,-151,792,378,-46
0.001330,-270,-33,-185,220,110,-103
0.004622,-219,43,-191,243,284,-141
0.001311,-203,69,-186,534,262,47
0.001332,-313,-52,-274,260,458,-242
0.002420,-183,-113,-294,-115,388,0
0.003531,-170,-70,-309,-2,215,412
0.002421,-204,-33,-344,-29,380,430
0.001313,-398,38,-290,85,631,177
0.001313,-251,86,-349,91,904,204
0.004622,-100,38,-364,-146,332,798
0.001329,-248,-31,-361,-508,539,292
0.002481,-86,126,-351,-194,720,-254
0.003537,-114,173,-370,130,357,-385
0.001337,-105,145,-330,197,380,-229
0.002413,-148,120,-345,48,678,-239
0.002407,4,126,-376,271,599,43
0.001338,-42,69,-375,373,316,-372
0.003503,-21,104,-370,530,254,-618
0.002398,-5,81,-373,596,561,-688
0.002454,2,74,-358,569,233,-447
0.002421,-136,104,-363,571,130,-898
0.001313,-3,72,-342,752,303,-1283
0.003484,3,79,-351,760,74,-1121
0.001352,-43,-15,-347,633,-70,-890
0.003516,-94,-36,-344,675,110,-761
0.002403,-61,-60,-340,704,22,-553
0.001319,-68,-87,-320,536,160,-671
0.003533,-74,-103,-327,442,32,-338
0.002438,-115,-182,-388,306,-16,120
0.001330,-102,-174,-347,133,135,206
0.002433,-110,-177,-316,110,-33,119
0.003509,-55,-206,-271,68,-119,102
0.002417,-86,-236,-288,33,-102,-5
0.001330,-144,-141,-265,-40,-85,190
0.001300,-101,-87,-251,9,32,326
0.004619,-100,-108,-224,-110,-77,386
0.001333,-46,-151,-201,-300,-236,414
0.002408,-132,-160,-163,47,151,464
0.004606,68,-121,-128,-67,-481,995
0.000259,-209,-158,-92,-245,905,300
0.002437,237,-112,-117,-136,-802,1383
0.001329,-179,-45,-41,-239,-277,574
0.003503,121,-81,-14,25,-326,1109
0.002391,-90,-82,-16,-253,54,833
0.001280,85,-6,14,-74,388,282
0.004654,126,-22,42,56,-663,703
0.001277,-14,2,77,31,-5,178
0.001303,73,-53,61,12,1135,-303
0.004614,281,-46,67,-64,-534,416
0.001368,-64,-26,123,-52,475,-22
0.002433,297,-62,122,-160,439,-91
0.001324,17,-20,172,-343,1160,-553
0.003531,122,38,156,81,589,96
0.002380,89,90,228,-66,660,59
0.001336,193,-54,213,-237,940,-82
0.002426,201,-118,160,-235,1077,112
0.003503,308,-42,217,-240,174,395
0.001308,92,-12,305,-266,754,149
0.003518,216,-15,242,-409,856,-42
0.002393,327,44,324,-381,580,3
0.001328,322,66,311,-230,-219,546
0.003492,212,2,342,-135,594,-121
0.001301,404,57,320,22,159,-143
0.003580,287,47,335,148,-152,-134
0.001318,385,73,398,136,-283,-157
0.002425,304,-21,418,-101,-175,-336
0.002420,336,-54,426,-47,-282,-249
0.002421,308,-63,397,-67,-702,-142
0.002424,204,-69,393,-107,-109,-569
0.002418,276,-85,417,-166,248,-539
0.001326,277,-102,410,-343,-736,66
0.004601,65,-118,436,-395,-173,-212
0.001336,205,-101,414,-432,255,-487
0.001361,234,-158,387,-619,-63,51
0.004619,113,-152,418,-761,-614,603
0.001306,-42,-84,444,-901,-24,18
0.002419,-33,-32,396,-796,584,-577
0.001293,39,6,429,-735,-99,-10
0.003551,-15,-53,364,-976,-210,498
0.002417,-60,-91,298,-963,579,417
0.001311,-83,21,313,-705,473,474
0.002452,-75,56,276,-432,45,446
0.003493,-53,-15,237,-442,324,13
0.001318,61,-53,249,-696,475,-346
0.003564,-52,21,274,-703,215,-340
0.002420,-30,-19,219,-497,135,-399
0.001318,24,-79,226,-555,539,-550
0.003508,62,-85,282,-662,405,-238
0.001301,24,-46,279,-678,453,63
0.003488,31,-28,246,-693,695,117
0.001322,35,-47,222,-699,968,91
0.002408,103,-5,265,-656,795,160
0.003509,81,36,191,-488,927,109
0.001306,166,29,99,-495,902,173
0.002407,111,-82,70,-718,801,63
0.002409,122,-6,56,-732,760,-253
0.002405,138,110,49,-517,717,-303
0.003489,159,68,13,-428,861,-76
0.001295,125,28,0,-538,609,320
0.002440,164,-2,-11,-502,717,302
0.003494,180,13,-79,-450,802,163
0.001308,228,48,-37,-298,727,159
0.002396,207,7,-54,-269,494,407
0.002436,169,-15,-126,-367,807,392
0.002407,313,4,-164,-523,502,403
0.002420,253,-15,-179,-578,331,337
0.002415,335,13,-172,-655,226,185
0.002403,328,-4,-171,-640,34,342
0.002413,254,8,-190,-562,29,426
0.001309,287,56,-172,-537,35,434
0.004611,298,27,-133,-551,-106,272
0.001323,299,47,-166,-484,-179,112
0.001324,331,69,-177,-442,-299,171
0.004576,260,119,-146,-354,-345,313
0.001332,271,131,-151,-338,-411,325
0.002416,206,171,-140,-290,-420,82
0.002458,220,119,-215,-295,-542,-50
0.002425,218,88,-229,-268,-649,-190
0.002422,192,99,-201,-265,-679,-190
0.002422,138,89,-163,-187,-777,-156
0.001314,4,94,-172,-186,-649,-407
0.003543,43,93,-203,-111,-522,-510
0.002408,17,31,-268,-77,-618,-320
0.002399,17,59,-258,-144,-611,29
0.001307,-31,17,-219,-192,-434,3
0.003507,-72,65,-229,-179,-464,-70
0.002461,-106,80,-212,-232,-469,-213
0.001331,-94,35,-241,-253,-447,-287
0.003516,-67,46,-250,-293,-509,-338
0.002420,-86,58,-221,-216,-558,-249
0.001342,-128,116,-171,-174,-479,-281
0.002434,-152,157,-152,-103,-378,-291
0.002421,-109,136,-129,-7,-220,-222
0.002496,-145,127,-143,166,-126,-43
0.002421,-118,163,-103,276,-15,-91
0.002414,-95,115,-117,378,-88,-181
0.002437,-55,76,-141,520,-143,-217
0.002375,1,4,-144,455,-237,-400
0.002458,-88,-86,-132,349,-220,-734
0.002414,-26,-33,-62,274,-320,-770
0.001321,-59,-78,-41,157,-217,-633
0.003517,-120,-114,-24,-13,-39,-390
0.002407,-143,-46,-7,-20,163,-150
0.001293,-74,-72,-9,82,268,-17
0.004571,-15,-94,-4,33,248,103
0.001299,-10,-92,-12,-86,166,27
0.001320,-21,-59,-24,-118,153,-106
0.003489,-3,-32,-39,-173,21,-255
0.002421,-24,-115,-46,-315,-14,-292
0.002409,18,-88,-43,-451,-246,-126
0.002410,0,-68,-18,-469,-186,65
0.002473,-52,-26,-1,-389,-158,293
0.002381,-18,9,26,-357,-91,334
0.001284,4,-16,53,-248,36,421
0.003509,55,-34,60,-225,-22,628
0.002412,5,-19,114,-205,52,649
0.001309,93,-55,109,-283,137,474
0.003513,99,-30,101,-290,-11,231
0.001319,160,18,109,-328,-141,146
0.002456,204,-26,121,-407,-236,177
0.003495,143,2,195,-399,-208,280
0.001334,146,-18,174,-312,-66,335
0.002419,113,42,182,-163,65,273
0.003498,121,104,247,-36,205,234
0.001287,105,99,249,6,273,231
0.002450,148,114,231,53,318,113
0.003509,156,145,221,102,219,18
0.002404,145,52,205,185,230,-132
0.001308,125,98,179,217,206,-175
0.002594,145,89,189,220,116,-35
0.003490,135,75,216,195,74,-9
0.001338,60,52,227,246,154,-140
0.002439,111,-25,189,308,72,-132
0.002373,9,15,213,244,98,-28
0.002380,82,-52,177,89,172,11
0.002387,15,-65,186,38,215,-32
0.002390,21,-55,172,32,262,-73
0.001338,35,-77,176,-47,251,-47
0.003486,5,-81,183,-143,180,-24
0.002402,28,-39,148,-164,201,142
0.002394,51,-18,149,-289,60,169
0.002393,47,-58,134,-527,26,254
0.002386,-78,88,238,-558,359,4
0.002393,128,104,182,75,307,370
0.001320,-126,151,207,397,-315,707
0.003521,-148,191,181,668,1883,-51
0.002401,259,125,199,485,-48,724
0.001346,40,114,218,481,332,-148
0.004588,254,70,211,745,606,-397
0.001307,181,68,229,874,-424,-20
0.001321,-35,60,233,1138,1023,-767
0.003495,244,44,235,959,288,-313
0.003503,9,-92,261,463,561,-1155
0.001325,330,-165,191,170,79,-1471
0.001337,29,-93,163,337,413,-1310
0.002414,80,-122,138,508,508,-188
0.003527,-122,-111,133,441,53,745
0.001306,-60,-152,82,384,1303,6
0.002425,141,-115,34,131,269,120
0.003514,-11,-134,-9,-228,299,-359
0.001309,2,-168,-56,-441,-65,103
0.003508,-275,-58,-52,-416,768,334
0.001316,6,-100,-81,-474,241,1090
0.001350,-78,-28,-41,-555,-187,963
0.004578,-52,34,-39,-414,493,387
0.001304,-48,11,-80,-398,-51,290
0.002424,-25,-61,-98,-399,531,432
0.003529,54,-113,-130,-717,-111,902
0.001307,-3,-82,-79,-745,405,793
0.002397,99,10,-66,-660,253,848
0.002399,123,13,-110,-719,62,848
0.002419,73,116,-97,-651,211,544
0.002414,157,150,-136,-620,422,-73
0.002415,169,206,-91,-358,241,-323
0.003519,204,190,-125,-222,313,-334
0.001312,242,206,-143,-98,310,169
0.002429,256,111,-128,-107,252,256
0.002408,191,220,-179,108,522,-82
0.002416,156,267,-148,331,162,-562
0.003511,186,175,-184,466,555,-971
0.001314,290,161,-178,402,57,-430
0.001321,101,112,-233,346,212,-245
0.003500,54,109,-253,499,184,-428
0.002399,91,62,-290,577,410,-849
0.001314,170,-13,-315,323,90,-809
0.002406,53,-69,-359,36,-116,-651
0.003493,27,-25,-367,-28,-3,-411
0.002407,21,-57,-415,-77,-67,-159
0.001312,-37,-24,-427,-39,-1,-192
0.003501,27,-46,-383,-128,-91,-168
0.002406,9,-76,-367,-222,-170,-24
0.001342,25,-41,-416,-303,-163,359
0.003489,58,-51,-396,-518,-387,692
0.002443,-17,55,-380,-600,-293,387
0.001358,144,34,-366,-448,-326,176
0.003550,56,50,-351,-413,-558,107
0.001323,69,14,-311,-517,-335,-116
0.001334,64,-4,-310,-524,-553,256
0.004597,81,54,-317,-477,-191,-10
0.001353,174,100,-247,-490,-578,-221
0.002427,-63,132,-249,-250,-160,-293
0.003481,138,31,-325,-107,23,-3
0.001312,133,6,-263,-396,-552,496
0.002405,-75,46,-227,-448,121,152
0.002432,131,87,-234,-325,-97,-245
0.003542,66,167,-233,62,-561,-72
0.001322,-47,84,-224,-28,-88,272
0.002450,-95,58,-219,14,-100,433
0.002422,37,51,-250,104,161,-427
0.002415,113,81,-196,274,-473,-352
0.002391,-63,20,-192,75,49,-662
0.002403,149,-40,-207,81,-314,-50
0.001299,-63,-6,-157,151,79,140
0.003502,83,37,-123,310,-380,579
0.002388,4,0,-95,158,-160,-276
0.001300,44,22,-69,279,295,-670
0.003498,-46,22,-73,160,-368,-382
0.002440,21,22,-32,180,-24,-312
0.002416,121,-85,-44,-17,-224,-126
0.001306,-37,-110,-35,-23,-68,25
0.003520,17,-76,5,-79,-85,48
0.002399,17,-61,38,-132,-21,-25
0.001319,38,-23,78,-272,-47,-34
0.003538,-21,-47,68,-227,24,161
0.002416,-30,-46,75,-225,-55,214
0.001309,-1,-45,115,-191,396,349
0.003508,65,-162,74,-392,-93,599
0.002438,43,-112,99,-386,-107,544
0.002404,-5,-43,129,-496,218,6
0.001360,15,-107,117,-476,215,-179
0.002413,67,-11,166,-456,-1,167
0.003568,51,16,182,-451,113,465
0.001323,29,14,170,-484,117,580
0.002398,27,11,232,-399,219,303
0.002572,76,81,266,-254,184,38
0.001385,74,100,244,-105,108,60
0.003518,78,147,287,-40,217,135
0.002397,82,118,335,-38,202,317
0.001296,79,-2,274,-54,175,266
0.004574,76,67,324,41,356,158
0.001288,104,65,321,61,336,74
0.001357,133,32,318,99,295,117
0.003577,167,41,350,129,122,190
0.002417,134,38,366,235,259,79
0.002406,128,49,333,224,146,-106
0.002398,90,92,353,386,140,-266
0.001315,91,48,348,458,156,-313
0.003513,111,10,346,415,138,-320
0.002390,81,21,354,416,99,-228
0.001303,78,-19,295,410,69,-246
0.003514,92,-51,293,354,78,-230
0.002407,88,-39,349,320,42,-144
0.002396,44,-50,304,357,44,-165
0.001302,17,-32,311,326,62,-209
0.003499,5,-65,301,260,118,-148
0.002397,65,-112,275,172,17,-19
0.001302,50,-73,266,105,196,-50
0.004578,80,-23,276,147,10,77
0.001296,28,-62,263,178,118,14
0.001302,59,-47,245,182,181,-23
0.002390,91,-35,253,104,17,100
0.003512,62,3,248,102,-180,227
0.001289,55,40,262,259,134,97
0.002422,81,55,187,271,-119,237
0.002381,68,1,172,317,43,-21
0.003478,80,11,188,396,-114,46
0.001301,35,8,164,365,-185,-104
0.002361,59,-11,168,456,-60,-116
0.003504,79,-24,160,453,-280,-74
0.001340,30,-22,148,424,-224,-92
0.003499,38,-4,128,420,-290,-116
0.002430,-21,31,110,433,-288,-219
0.001309,-1,-37,44,415,-268,-182
0.003488,27,-42,25,406,-405,5
0.001328,-48,-48,43,360,-281,-92
0.001367,-56,-9,-2,368,-317,-208
0.004664,-69,-11,-57,419,-318,-290
0.001317,-74,-1,-44,341,-323,-208
0.002445,-120,-62,-75,281,-262,-198
0.003520,-93,-88,-122,330,-379,-68
0.001329,-192,-3,-88,145,293,-417
0.002411,26,-69,-101,270,-239,-98
0.002433,-213,-125,-126,39,-1017,491
0.003627,-326,-84,-57,-246,536,-995
0.001320,192,-32,-98,182,301,-185
0.001339,-261,-14,-78,486,-2000,1847
0.003534,-526,-82,-80,-96,1125,-334
0.002412,71,12,-129,2,786,-621
0.002428,-136,138,-60,361,-1906,310
0.002418,-285,20,-76,255,3,38
0.001337,-1,-165,-141,-161,644,283
0.003536,-132,-56,-99,219,-1260,1368
0.002435,-367,60,-37,413,-430,-86
0.001325,-102,50,-57,405,468,-1274
0.002431,114,-64,-122,509,-818,353
0.003538,-396,-74,-65,316,-994,1230
0.002421,-374,28,-59,192,1105,-794
0.001310,87,83,-109,635,-750,-51
0.001356,-431,8,-141,515,-173,-474
0.004652,-209,-103,-194,244,662,-914
0.001316,-196,10,-133,426,-641,99
0.002411,-356,52,-142,518,429,-78
0.003540,-144,-29,-187,338,-250,-321
0.001347,-345,-89,-202,462,-427,-708
0.002460,-310,-11,-145,504,481,-533
0.002484,-130,-190,-215,-29,-424,536
0.001428,-400,-207,-228,-274,-15,136
0.004656,-280,-6,-170,312,147,-25
0.000216,-213,-36,-169,229,61,295
0.003547,-321,-158,-137,-378,2,548
0.002419,-281,-75,-99,-507,-13,50
0.001308,-157,94,-93,-36,220,-68
0.003558,-121,-48,-128,-150,-122,363
0.001357,-145,-144,-106,-485,-135,529
0.003580,-156,-8,-71,-292,163,522
0.001287,-5,68,-46,-81,22,559
0.002411,-59,34,-22,-256,-358,226
0.003569,-27,73,-3,-109,-118,341
0.001438,10,146,22,-5,-123,475
0.002441,-31,93,14,-25,-155,477
0.002427,37,47,53,44,-191,380
0.001287,6,95,38,126,-206,114
0.004705,12,120,51,162,-153,-193
0.001321,18,92,70,187,-243,-289
0.001310,-10,106,44,205,-47,-258
0.004588,6,62,-5,127,-156,-130
0.001361,-72,66,-13,140,38,-447
0.001312,-32,162,5,318,147,-741
0.003492,-30,80,-4,387,-12,-491
0.001410,-109,8,-52,15,-41,-388
0.003678,-135,27,-63,50,233,-445
0.001333,-181,84,-57,160,288,-738
0.002417,-119,125,-27,127,250,-582
0.002499,-192,-8,-97,-206,232,-232
0.002441,-258,-15,-84,-69,993,-153
0.003507,-146,59,-106,-930,34,139
0.001331,-315,48,-88,164,2062,-1178
0.001353,219,-16,-70,-171,-2284,1338
0.004614,-962,20,-39,729,3592,-1641
0.001342,644,128,-119,953,2450,545
0.002435,-502,142,-88,2067,3017,1738
0.001424,356,-239,-190,1230,5165,1398
0.003538,380,-306,-190,992,4218,1964
0.002438,26,-214,-161,1459,5865,-366
0.002440,724,-180,-215,2118,5614,-107
0.002484,787,-555,-236,2635,2956,3750
0.002524,844,-1024,-275,915,12372,3426
0.001362,1943,-843,-231,-136,4477,4605
0.004641,1421,-273,-112,1222,5799,4444
0.001357,2357,-816,-161,-945,6210,-628
0.001368,2423,-858,-260,-3002,5019,-3186
0.002450,1788,-298,-35,-2819,-977,-679
0.002457,1651,-417,-29,-3063,5513,-8173
0.003546,2446,-302,-167,-4985,366,-959
0.001360,2487,-272,-204,-8229,-427,2837
0.002437,1727,-9,-62,-7179,-2691,657
0.002455,1531,894,127,-3342,-1555,-4667
0.002454,1074,1006,-155,-3260,3118,832
0.002457,1761,231,-194,-4422,-6715,6222
0.002426,299,669,12,-4584,5600,1549
0.001375,1746,1364,-125,-2063,-1480,-2064
0.004649,1282,1896,-34,1793,-10167,3648
0.001347,-104,1351,195,512,-2187,2846
0.001344,1329,957,73,-1191,2613,-4131
0.002455,1405,1852,384,3438,-15064,3472
0.003570,-2357,1792,828,5735,13077,-13565
0.002449,4454,350,398,3158,-11837,-273
0.001371,-2065,796,923,3921,3438,-1739
0.001352,3973,411,481,2529,-2482,6787
0.004667,-2171,855,973,10263,169,1466
0.001353,-184,723,831,3561,2061,-11241
0.001360,-780,580,695,6665,21834,-16542
0.003560,3501,-681,326,7021,-18826,14457
0.002459,-471,-1661,765,757,24768,-2973
0.002465,-1444,-1541,84,-138,-12117,7669
0.002472,-1575,796,1121,3436,22121,-16716
0.002460,7740,-1194,492,7429,-13356,24021
0.001395,-4357,-3358,325,-10776,13912,-13275
0.003551,3070,-438,433,227,-102,-515
0.002474,-4000,1122,1352,6693,4356,-3257
0.001338,5074,-1964,68,999,5655,7946
0.002512,-1116,-3276,115,-11546,-2377,4673
0.003538,905,-352,390,-2016,8511,-2486
0.001337,1868,72,575,1496,-2370,9420
0.001384,-534,-1607,546,-5961,4771,-3783
0.004640,2596,-1491,206,-8528,625,4046
0.001347,879,144,573,-4279,1958,6166
0.002629,2193,382,762,-3973,1490,3963
0.001310,1435,394,770,-1158,458,2648
0.003552,2118,-48,347,-3419,2457,4490
0.002417,2351,160,522,-4293,-1570,1880
0.001332,2946,704,692,-1968,-3849,1225
0.004623,1118,701,693,-2630,-2523,-1327
0.001326,2348,1090,359,5129,-3008,1168
0.001314,625,1505,506,-530,-2409,-6366
0.003506,1885,1306,487,814,3397,-12639
0.001321,2442,710,306,3815,-14410,-476
0.002395,-174,-141,195,3315,4600,1926
0.003513,2245,-648,206,-3642,-9792,-1426
0.001340,-778,1448,690,4586,2462,-9995
0.002412,2858,831,196,9162,-11192,10887
0.003506,-1509,-1647,273,-3872,298,-4826
0.001308,3020,-458,163,67,-1479,-2196
0.002433,-1694,1672,657,4861,-9533,479
0.002419,1718,345,236,4347,1102,-3720
0.003502,512,-1061,105,-2674,-5742,265
0.001308,233,-178,204,1442,-4608,2267
0.001326,174,332,269,971,-5292,-2091
0.004618,2,-142,183,727,-1986,-5110
0.001305,229,-708,112,-752,-6329,736
0.001315,-397,-762,103,98,520,-677
0.003500,-402,-345,189,-1413,-4274,1403
0.002379,-311,-66,-21,1084,-70,285
0.002498,600,-587,-145,-966,-3543,3094
0.002429,-620,-733,-117,-2189,-3671,2092
0.001314,-417,-244,-155,-1457,-1615,11
0.003562,-221,-81,-212,-407,-1358,-865
0.002413,-129,-293,-305,-1897,-2864,435
0.002417,-417,-540,-336,-2476,-4005,2608
0.001372,-714,-193,-338,-2324,216,-2042
0.003504,117,-2,-450,-1979,-2105,-1113
0.002410,-867,-84,-473,-1112,-3698,2187
0.001460,-220,-487,-562,-4069,-2632,2337
0.002419,-747,39,-563,-3087,1292,-1039
0.002429,226,750,-659,-1152,-4694,1524
0.002406,-748,584,-670,59,-1864,3214
0.003564,-420,-153,-757,-3670,-1539,233
0.001315,-384,574,-707,-733,-1427,-363
0.001308,-285,973,-748,732,-3623,2545
0.004620,-486,490,-813,121,-865,1293
0.001324,4,292,-852,-885,-4530,521
0.002469,-765,687,-766,538,-1433,-2093
0.003543,200,542,-848,175,-3502,-1039
0.001343,-593,365,-754,261,-3565,-893
0.002439,-408,475,-741,625,-2346,-299
0.002496,-707,469,-744,1090,-1241,-21
0.001340,-129,128,-839,432,-3995,522
0.003540,-457,176,-769,106,-3174,-694
0.002441,-543,424,-612,999,-2304,-1913
0.002460,-471,213,-698,753,-3878,-334
0.003546,-986,72,-665,-518,-3623,-1108
0.001338,-308,190,-650,70,-2416,-614
0.001382,-682,202,-540,243,-3792,-231
0.002437,-788,88,-607,242,-4765,-328
0.003591,-1065,104,-572,44,-2268,-1202
0.001360,-925,-97,-566,-332,-3304,-1083
0.002459,-1291,-93,-504,-458,-3576,-1284
0.003552,-950,0,-506,-201,-2991,-744
0.001360,-1158,-76,-453,-469,-2522,-916
0.001361,-1165,-259,-465,-605,-3239,933
0.003663,-1541,-289,-412,-1318,-2946,555
0.002500,-1241,-265,-406,-1155,-1374,-347
0.002456,-1303,-134,-293,-1386,-2379,519
0.001378,-1573,-67,-254,-1473,-2048,-305
0.003540,-1429,-56,-267,-1029,-575,117
0.002463,-1397,-125,-294,-899,-1118,1511
0.001357,-1424,-68,-212,-1122,-930,1565
0.003580,-1473,31,-172,-868,245,321
0.001361,-1312,67,-218,-647,-289,273
0.002421,-1432,2,-211,-749,249,599
0.002459,-1260,35,-194,-812,717,1026
0.001409,-1262,198,-122,-678,296,1303
0.003529,-1281,229,-114,-274,784,400
0.002435,-1234,219,-122,-38,1155,346
0.001436,-1383,148,-125,-336,1427,104
0.002439,-1276,237,-73,-47,2011,-283
0.003545,-1106,288,-40,370,2453,386
0.001326,-1147,170,-3,232,2774,103
0.002415,-724,42,-5,-174,2265,310
0.002480,-984,137,73,-327,2108,-208
0.003527,-639,63,61,-69,2041,-382
0.001355,-710,-28,110,-128,1871,356
0.002466,-705,22,152,-237,1794,866
0.003505,-635,180,195,-240,1741,520
0.001326,-562,258,297,182,2119,593
0.002428,-337,83,291,-425,1665,447
0.002431,-448,109,337,-666,955,240
0.001341,-558,418,411,135,2455,-957
0.003540,-306,374,445,607,2425,-505
0.002418,-377,277,471,190,1505,642
0.001335,-398,213,490,-62,2684,73
0.003544,-205,357,497,531,2487,-236
0.002476,-323,438,482,1195,2318,-391
0.002435,-276,326,494,1052,2756,-464
0.001326,-225,268,534,821,2516,-417
0.003538,-205,355,544,1239,2520,-277
0.002420,-94,281,521,1315,2384,-508
0.001368,-230,148,489,1204,2410,-1042
0.002449,-213,92,518,1196,2615,-1089
0.003555,-269,97,558,1380,3180,-1233
0.001344,-149,98,539,1296,3301,-786
0.002435,-203,-35,444,1208,3501,-626
0.002446,-140,-77,396,1194,3509,-375
0.002438,-187,-53,357,1051,3962,-349
0.002446,-31,-101,312,728,3500,-135
0.002401,-80,-58,324,772,3885,-66
0.002476,-36,-51,257,815,3475,-121
0.002432,-133,-44,244,1046,3920,-210
0.002401,87,-152,166,975,3309,946
0.002414,78,-214,181,312,3427,1184
0.001359,128,-240,173,238,3356,95
0.003509,282,-101,174,702,2951,425
0.002409,46,-242,139,347,2499,772
0.001330,149,-341,116,118,3924,1243
0.003546,222,-344,105,-497,3573,1369
0.002430,478,-199,91,-277,2589,1156
0.001325,432,-122,90,-229,2462,909
0.002419,332,-190,79,-504,2823,500
0.003533,338,-110,38,-665,2710,982
0.002415,557,7,19,-509,2057,1240
0.001316,487,-51,-2,-770,1700,525
0.002474,493,7,-13,-949,1942,397
0.003564,549,-25,-59,-857,1595,1030
0.001384,506,45,-45,-1017,1506,1264
0.002550,375,87,-43,-612,2167,271
0.002418,618,109,-69,-33,1635,542
0.001400,518,68,-71,-263,1147,1043
0.003532,568,-56,-182,681,1797,2161
0.002415,386,0,-115,-632,247,1476
0.001331,594,50,-147,-690,-578,1200
0.003553,503,-295,-174,-938,4264,-1573
0.002450,669,112,-112,-2249,2525,-3932
0.002414,784,457,-160,57,-741,276
0.002452,123,313,-213,1456,247,2257
0.002447,638,25,-248,-1850,-301,1316
0.002441,803,430,-242,-490,3931,-3011
0.001346,1198,623,-266,1486,-2598,950
0.003550,-203,246,-177,1115,-1235,-424
0.002449,611,-296,-300,-162,3184,-3456
0.001400,1217,-14,-322,1294,-1253,1918
0.003734,45,-119,-274,1342,-912,793
0.001359,738,-367,-314,726,-400,-938
0.002467,679,-610,-394,855,-1223,-357
0.002467,640,-884,-438,-1358,-893,-1507
0.001479,129,-769,-419,438,-2187,-1262
0.003577,424,-672,-512,349,-2494,363
0.002450,383,-979,-467,-674,-1471,1384
0.001427,614,-1483,-436,-1093,-3174,3606
0.003573,-170,-1163,-216,-1344,-5250,1231
0.001353,1052,-932,-288,-167,1791,-164
0.002476,1251,-1178,-406,-1264,-4854,4152
0.003558,-734,-1023,-107,-607,-5280,1819
0.001345,102,-773,-170,804,3580,-3215
0.002465,1758,-1414,-402,-1247,-6541,2396
0.001428,-524,-1801,-173,-3545,-4454,2024
0.003626,395,-1507,-198,-2504,-554,-202
0.002463,408,-1164,-167,-1749,-5288,3423
0.001373,-605,-1241,-18,-1722,-3326,567
0.003582,565,-1521,-65,-3577,-3161,80
0.002465,-297,-1340,-44,-3289,-2219,341
0.001345,252,-1012,4,-3517,-4278,1033
0.003524,-719,-668,147,-251,136,2413
0.001369,605,-1062,24,-1608,-1173,4346
0.002458,-215,-1194,109,-6540,-5112,2718
0.002455,-57,-31,393,-2405,1458,-4129
0.002459,968,729,254,-1165,-3778,-444
0.003565,-145,393,238,-1267,-5150,450
0.001336,-420,5,436,-3745,-1433,3546
0.001383,702,699,343,-1908,-3300,279
0.003526,-97,916,357,-317,-2,-3680
0.002424,-170,726,363,-383,-8250,-2783
0.002453,-762,502,397,-385,372,-2878
0.002431,438,481,277,-544,-2248,-1345
0.002419,-325,951,435,771,-3632,10
0.002452,-75,759,436,905,641,-3897
0.001346,601,433,329,-912,-2901,-4817
0.003554,-363,902,520,1274,-5537,-3165
0.002402,-515,853,460,1002,1615,-3986
0.001359,-315,790,368,217,-523,-4587
0.003565,64,1178,464,1905,-3237,-1761
0.002419,-192,996,448,1913,78,-4558
0.001327,238,426,318,349,-540,-4494
0.002458,-712,651,346,737,-1061,-4122
0.003530,-183,860,376,1764,-213,-4483
0.002430,-77,565,349,1638,1174,-3012
0.001328,141,194,278,208,-665,-2162
0.002465,-563,377,325,343,-216,-2773
0.003529,-169,499,345,936,1202,-3150
0.001324,140,164,286,-563,-67,-562
0.001324,-502,10,223,-1596,48,-656
0.003565,150,450,252,-248,705,-1328
0.002413,65,451,258,-292,-1142,72
0.002431,-430,62,266,-1475,859,-1111
0.001371,-135,120,258,-1912,-97,-432
0.002430,-189,393,224,-1096,483,-780
0.003509,-217,368,265,-1156,396,51
0.001335,-169,192,199,-1887,892,-127
0.002429,-280,217,181,-2002,161,1443
0.003550,-463,327,235,-1716,1094,792
0.001321,28,368,178,-2066,470,1358
0.003523,-329,373,118,-2118,621,1263
0.001334,-132,394,120,-2069,103,1284
0.001336,-376,496,106,-1848,922,1300
0.004608,-237,569,134,-1748,684,1221
0.001336,-322,580,56,-1419,1129,1060
0.002417,-280,568,72,-1412,73,1302
0.002423,-364,551,61,-1181,1859,702
0.002430,-180,435,-34,-1450,242,1434
0.002415,-559,495,-29,-1039,1246,1310
0.001307,-234,403,-8,-1318,720,1500
0.003506,-418,490,-1,-1240,1767,737
0.002392,-200,433,-45,-1136,-22,1642
0.001312,-608,406,-124,-1267,1013,1076
0.003484,-296,417,-128,-1349,1939,449
0.002388,-272,472,-129,-898,696,1642
0.001318,-542,527,-88,-741,653,365
0.003477,-324,543,-150,-125,2264,-93
0.002382,-214,385,-212,-440,883,512
0.002383,-475,353,-172,-258,1103,71
0.002388,-400,431,-213,279,1735,-266
0.003477,-252,347,-282,416,1645,-421
0.001288,-351,215,-276,198,961,133
0.002383,-395,187,-311,346,1910,-20
0.003476,-219,117,-344,267,1454,-137
0.001293,-305,98,-371,428,1559,-287
0.001375,-178,5,-436,162,1060,-123
0.003464,-229,-22,-445,149,1142,67
0.002389,-334,-90,-459,112,1420,-281
0.001287,-246,3,-464,379,1611,-386
0.003481,-181,-20,-421,153,1455,-266
0.002384,-93,-193,-527,-16,1352,175
0.002383,-160,-92,-500,30,1564,-127
0.002358,13,24,-426,190,869,153
0.002389,-156,-111,-496,44,1307,-118
0.002383,92,-277,-585,-254,1206,350
0.001288,-90,-201,-551,-63,511,791
0.004553,-40,-65,-509,284,1030,381
0.001281,28,-82,-489,451,1166,411
0.001330,118,-166,-511,316,218,239
0.003471,-59,-73,-455,664,1059,-167
0.002376,142,-139,-489,405,466,470
0.001287,115,-189,-508,252,333,608
0.003457,177,-257,-553,-127,-46,1305
0.002444,66,-190,-492,-434,751,616
0.002403,380,-223,-504,-444,-1047,1339
0.002376,-155,-53,-440,-113,27,484
0.002380,143,-56,-357,-165,-343,291
0.002395,114,-53,-354,74,-523,1322
0.001309,137,-37,-369,501,-883,1045
0.004575,-44,104,-286,1435,-405,449
0.001330,-57,123,-276,1720,-482,631
0.001348,-6,-38,-293,1503,-115,728
0.003555,159,-111,-259,1188,-1102,1084
0.002424,51,83,-230,1726,-486,1440
0.001346,193,145,-218,1551,-1020,1189
0.002463,-38,-29,-263,1361,-793,162
0.004638,-85,-39,-220,1435,-1414,-641
0.001330,-57,52,-167,1865,-705,-977
0.001335,-26,28,-164,2045,-1755,-248
0.003516,-295,7,-104,2161,-598,-344
0.002407,23,-10,-53,2421,-430,-18
0.001327,21,-52,-80,2637,-1686,1107
0.003531,-202,-158,-104,2193,-961,275
0.002439,-189,-28,-38,2232,1143,-1727
0.001336,214,-34,-33,2611,-1069,-370
0.002430,-347,-69,18,2067,-1753,-356
0.002424,-134,-147,9,2005,154,-1534
0.002422,116,-148,38,2370,209,-1264
0.002415,1,-249,51,2262,-1204,-772
0.002436,-303,-299,58,2029,-608,-1345
0.003600,-57,-378,-7,1686,331,-1994
0.001325,-3,-401,46,1403,-943,-201
0.002523,-180,-429,79,771,-940,814
0.002407,9,-387,52,492,551,47
0.001322,133,-211,66,859,-753,206
0.004626,-103,-167,93,943,-1494,-633
0.001332,-124,-201,207,927,62,-1593
0.001324,42,-237,131,822,-563,-732
0.003650,-152,-242,181,912,-1122,128
0.002408,-69,-160,173,996,10,102
0.001324,68,-211,156,1011,-143,241
0.002427,54,-230,161,1026,-1240,570
0.002486,-197,-176,178,1051,-566,-125
0.003544,-112,-163,189,1126,542,-927
0.001331,24,-156,182,1375,-1226,200
0.002532,-168,-159,221,1189,-291,72
0.002423,7,-209,227,894,88,-254
0.002447,-11,-196,165,923,-363,187
0.003536,-106,-149,214,1034,-510,46
0.001332,-3,-143,195,1038,-193,-312
0.001339,-44,-230,187,773,-213,-173
0.004622,-15,-276,207,645,-342,-22
0.001320,-65,-173,216,809,-63,274
0.001585,-88,-202,217,602,-367,698
0.002462,-83,-210,224,276,400,326
0.003524,89,-236,190,167,-102,635
0.002431,-42,-168,197,317,-690,870
0.001324,-103,-153,202,110,145,192
0.001281,25,-88,240,42,3,111
0.004602,-93,-89,219,99,-351,443
0.001310,-73,-83,226,30,64,552
0.002394,-2,-83,173,-139,26,538
0.003506,-66,13,177,87,-33,750
0.001332,-107,-23,137,161,-81,440
0.002394,-83,3,130,241,313,-22
0.003523,-37,24,140,170,153,47
0.001300,-42,89,125,275,103,396
0.002424,-71,91,144,216,128,331
0.002401,-58,150,132,576,299,319
0.003522,-94,189,125,670,172,8
0.001308,-69,140,64,881,562,-461
0.001571,-27,129,49,880,279,-416
0.003523,-78,92,43,945,392,-322
0.001348,-62,51,55,884,648,-615
0.003489,-39,110,8,919,463,-444
0.002470,-102,161,33,876,177,-395
0.001313,-97,33,-12,830,842,-759
0.003495,6,46,-12,709,417,-424
0.002403,-48,-6,-60,567,180,-172
0.001318,-96,121,-55,419,779,-395
0.002389,5,-6,-44,244,488,-312
0.003486,-52,-56,-116,12,13,-36
0.002402,-52,9,-70,-114,491,-413
0.001295,9,29,-72,-17,422,-337
0.002410,-1,9,-110,-144,-75,10
0.003514,-68,16,-138,-263,323,-135
0.001325,-16,20,-167,-245,389,-281
0.002413,-31,68,-149,-60,106,-151
0.003538,-60,39,-181,-138,31,167
0.001324,-65,70,-153,-251,452,-125
0.002403,-23,54,-150,-23,186,-45
0.004589,-92,110,-138,95,-69,33
0.000258,-106,47,-149,-71,391,-269
0.002412,-46,56,-184,114,272,-206
0.001319,-74,50,-185,149,133,130
0.004598,-101,-10,-200,-16,357,-31
0.001291,-40,27,-165,0,-49,71
0.001341,-118,54,-183,286,550,-270
0.004592,-27,26,-147,241,160,110
0.001336,-55,-81,-193,5,214,207
0.002566,-3,-31,-212,-18,289,79
0.001329,-18,-51,-188,57,200,273
0.003511,-75,-78,-171,-135,-5,193
0.002419,-12,-89,-143,-211,419,-16
0.001344,-2,-46,-163,-297,167,56
0.002404,9,-18,-155,-357,-10,278
0.003497,18,-29,-156,-506,-88,268
0.001312,7,-102,-156,-591,239,145
0.003497,48,-30,-104,-585,-206,433
0.001388,-15,22,-61,-654,-253,387
0.002389,-22,8,-117,-682,84,129
0.003502,2,5,-130,-701,-359,279
0.001317,-95,35,-86,-664,-309,169
0.003480,-59,59,-79,-590,32,-19
0.002407,34,42,-83,-560,-328,166
0.001311,-82,87,-88,-512,-292,69
0.002483,-34,63,-18,-399,-106,-21
0.003495,-32,85,-22,-356,-209,29
0.001314,-84,102,-16,-287,-301,80
0.002402,-126,126,0,-184,-47,-65
0.003495,-14,89,-31,-38,-127,-91
0.002402,-32,64,-29,53,-262,-130
0.001292,-89,68,34,112,26,-286
0.002381,-24,51,41,107,2,-219
0.003488,-57,-19,29,86,-118,-98
0.001293,-22,-4,24,155,46,-192
0.003475,-6,6,43,127,-39,-168
0.002403,-45,-3,70,110,-176,-175
0.001301,-43,14,53,103,-36,-311
0.002388,8,-51,58,105,-42,-327
0.002395,16,-36,66,23,-180,-210
0.003501,25,-89,41,-65,-147,-217
0.001302,3,-40,96,-70,-164,-162
0.002406,-2,-55,95,-117,-38,-142
0.003545,12,-70,57,-235,-154,-58
0.001341,35,-103,88,-260,-140,35
0.002399,32,-53,96,-261,-100,39
0.002407,45,-46,73,-347,-163,-64
0.002478,-11,-47,84,-279,-85,-36
0.003557,-25,32,127,-235,-192,28
0.001324,-5,-50,54,-251,-156,-18
0.001316,22,-55,51,-165,-131,31
0.003484,-10,21,67,-111,-220,54
0.002413,-22,46,116,-55,-158,36
0.001271,-18,-20,95,3,-6,12
0.002378,4,-21,66,97,-250,195
0.003529,-62,66,108,119,-192,102
0.002379,-27,35,97,89,-66,-18
0.001271,8,56,62,99,-242,38
0.003493,-12,70,143,166,-129,-51
0.002407,-23,114,120,235,-250,-16
0.001327,-35,13,82,284,-72,-86
0.003488,-23,23,136,295,-83,-78
0.002414,-61,49,141,283,-273,-27
0.001300,-71,94,109,391,-78,-69
0.003471,-8,55,97,405,-78,-18
0.001386,-84,40,118,291,-177,-91
0.002414,-52,48,125,319,-147,-234
0.003492,-85,3,89,269,-39,-362
0.001314,-92,34,144,182,-104,-155
0.003508,-127,58,134,80,-114,-156
0.002408,-112,-20,84,132,51,-235
0.001314,-103,-28,68,124,-107,-53
0.002401,-154,-50,72,-19,116,-46
0.003467,-141,-4,82,-56,87,8
0.002374,-121,14,99,38,107,68
0.001300,-174,87,118,80,216,7
0.003490,-109,57,117,90,299,136
0.002387,-121,24,70,65,258,104
0.001307,-86,170,155,317,181,167
0.002408,-83,148,132,455,500,-218
0.003476,24,27,77,615,309,-158
0.001288,-79,49,76,590,166,-55
0.002385,-36,3,65,596,517,-233
0.003484,20,13,44,692,341,-243
0.001292,-15,36,63,788,124,-16
0.002419,-34,17,93,708,305,-87
0.002387,40,42,83,604,239,-228
0.003468,16,16,64,719,61,-221
0.001375,-3,-22,75,726,45,-165
0.002410,22,-100,66,512,143,-176
0.003516,-16,-94,32,381,-157,62
0.001303,-38,-103,19,369,-61,-9
0.002372,6,-77,21,312,-8,13
0.002418,-11,-73,-2,150,-139,287
0.002406,-63,-62,40,5,-78,230
0.003508,14,-108,-37,41,-31,226
0.001302,-27,-46,-4,36,-224,349
0.001296,-94,-16,41,15,-70,277
0.004575,-14,-36,22,-5,14,214
0.001296,-68,49,29,-41,-46,341
0.002442,-57,43,-38,4,-233,382
0.003515,-36,13,-25,36,-26,336
0.001282,-53,61,-7,78,-2,385
0.002406,-91,125,-21,167,-93,335
0.002411,-66,162,-37,244,43,174
0.002411,-19,108,-35,366,69,152
0.002409,-33,107,32,364,-95,226
0.002409,-94,92,-22,388,-3,124
0.003667,-35,133,-29,428,137,-54
0.001324,-69,179,18,478,100,-38
0.002399,-69,112,-19,488,88,16
0.002407,-45,59,-41,407,87,101
0.001315,-58,17,-64,320,168,-149
0.004589,-43,44,-31,381,-55,-33
0.001297,-123,8,-34,238,3,-120
0.001321,-37,22,-32,187,396,-210
0.002416,-31,-4,-67,150,-37,-9
0.003519,-62,19,-64,155,236,-42
0.001302,-3,-42,-67,-78,283,-70
0.002403,-27,28,-39,-100,-79,-62
0.003486,-80,101,-7,86,-456,4
0.002419,-68,18,-41,56,528,-125
0.002438,-30,30,-27,-47,-150,196
0.001323,-60,39,-40,-82,-244,199
0.003534,-119,111,-1,131,272,-201
0.001301,99,73,-18,-10,-387,317
0.003473,-192,80,9,14,37,-326
0.002397,65,84,-26,192,60,-208
0.001314,-32,33,-33,335,-37,-50
0.002411,53,-11,-13,234,-254,137
0.002403,-90,9,-22,134,-44,-281
0.002428,-34,-1,-22,414,432,-459
0.002397,13,54,44,437,-465,418
0.002412,-160,-68,18,269,243,-195
0.002432,113,-21,8,259,346,-59
0.002424,-46,-15,32,362,-270,126
0.002397,-58,-86,25,289,343,-79
0.002398,-34,-75,19,93,134,-219
0.001322,6,-81,10,307,302,18
0.004595,28,-132,24,230,-270,247
0.001317,-14,-118,63,197,713,-148
0.001312,89,-112,54,128,-153,305
0.004579,-78,-73,67,22,229,183
0.001274,7,-112,42,-73,6,51
0.001327,70,-127,27,21,246,111
0.003563,-33,-148,-10,-153,164,408
0.002393,40,-148,28,-364,50,252
0.002404,11,-108,61,-302,272,222
0.002389,32,-65,17,-354,72,366
0.001342,24,-90,41,-480,137,338
0.003494,1,-5,64,-532,-127,402
0.002391,31,-3,19,-442,162,309
0.002431,68,12,39,-342,-206,427
0.002378,0,40,38,-276,15,161
0.002383,-43,92,63,-89,77,-31
0.002380,79,67,37,35,216,-115
0.001275,60,13,20,66,-125,28
0.003459,-1,18,16,132,39,153
0.002369,68,77,48,11,-80,83
0.001309,9,-35,20,172,144,-40
0.003482,32,58,41,248,-17,-278
0.002395,24,19,32,296,-127,-215
0.001307,-21,-12,14,396,114,-395
0.002394,3,19,53,343,11,-312
0.003519,-7,-25,35,315,24,-237
0.002410,-29,-64,17,118,149,-234
0.001296,-11,-67,-1,161,-25,22
0.003495,-7,-123,5,174,162,-283
0.002416,53,-153,-4,128,138,-118
0.001342,-45,-55,59,-46,170,-312
0.002415,-62,-132,7,-141,304,-334
0.003500,82,-187,8,-249,90,134
0.001350,-11,-112,8,-406,301,-40
0.003486,15,-85,14,-343,231,-19
0.002409,-39,-114,3,-333,227,-83
0.001323,-14,-68,-13,-434,397,-113
0.003533,52,-56,-6,-506,227,-151
0.001310,18,-90,-30,-375,146,106
0.003570,24,-54,13,-393,286,276
0.002409,15,-50,1,-562,267,-123
0.001317,18,-47,-30,-448,303,-112
0.002392,22,2,-15,-430,143,109
0.003496,31,-18,-1,-511,85,177
0.001295,-3,-8,-30,-503,150,35
0.002392,41,24,-24,-313,185,65
0.002460,45,-17,-46,-391,177,70
0.003513,77,4,-39,-488,-13,-29
0.001303,14,102,-24,-326,90,-98
0.002402,18,91,-11,-199,208,-37
0.003520,60,30,12,-294,113,134
0.001310,62,-27,-27,-281,-56,154
0.003539,40,44,-60,-132,188,-120
0.001291,52,47,-49,-72,126,10
0.001436,31,-31,-22,-252,44,11
0.003469,7,52,5,-228,105,-2
0.002385,61,10,-32,-187,23,96
0.001303,34,25,-55,-222,-34,143
0.003509,65,-3,-54,-217,-21,75
0.002414,46,17,-66,-312,-20,-230
0.002406,74,47,-57,-346,-81,-210
0.001324,108,-19,-85,-348,-238,-62
0.003533,99,-37,-41,-489,-403,116
0.002385,-4,34,-40,-447,2,-47
0.001303,88,20,-21,-480,-428,79
0.002420,-3,-50,8,-522,-401,-111
0.004667,34,-18,16,-592,-170,-209
0.001318,46,-52,-68,-628,-88,-338
0.002452,87,-82,-71,-650,-195,-58
0.001355,-13,0,-26,-741,-12,217
0.003723,36,10,-56,-774,-217,351
0.001318,-30,47,-31,-814,-552,24
0.002418,-56,38,-30,-297,-260,-404
0.002476,69,-14,-45,-387,-1022,-154
0.002428,-205,16,-45,-238,865,-588
0.002450,181,-34,-27,-384,539,-70
0.002427,-132,33,-15,-356,-1731,1074
0.001327,-148,23,-14,-188,1373,-415
0.004641,320,-29,-41,-609,-189,734
0.001311,-145,65,26,-636,-829,512
0.001302,-66,67,17,-303,729,-601
0.004587,224,-16,-37,-575,-456,117
0.001338,-190,-18,27,-783,-1326,-255
0.002426,-101,76,63,-473,1033,-1175
0.001302,184,17,17,-272,-829,61
0.003498,-215,8,61,-180,-391,574
0.002388,5,-51,39,-204,367,252
0.001342,-30,15,31,-209,281,-11
0.002380,52,6,12,-171,-508,853
0.003495,-88,10,56,-663,-112,110
0.001300,117,-31,9,-837,110,-19
0.003497,-37,3,-23,-902,-474,-260
0.002397,25,40,43,-820,-897,138
0.001315,-104,2,75,-1063,422,-746
0.003488,43,83,93,-813,-99,-461
0.001429,-113,88,106,-238,-573,227
0.003536,-106,-48,74,-317,-105,-52
0.001325,-93,-71,-8,-327,1014,-298
0.002430,146,-12,-20,-408,-1022,1038
0.003498,-230,43,55,-293,133,441
0.001287,-2,-1,8,-549,311,-41
0.002400,21,-23,-18,-506,-2,-207
0.002394,-14,93,61,-527,-189,42
0.002424,-36,-51,16,-684,410,-612
0.004589,-45,18,33,-583,-196,-517
0.000229,-35,29,-4,-178,326,-307
0.001301,48,-52,-7,-548,29,-179
0.004572,-93,-27,24,-228,555,61
0.001292,33,37,50,-75,-294,565
0.001300,-83,-39,13,-62,817,231
0.004654,123,-100,-16,-451,441,155
0.001295,-4,69,0,-387,-154,367
0.002360,-21,64,40,-304,329,-127
0.003487,21,-7,-17,-573,691,-799
0.001330,115,-108,-33,-664,-201,-35
0.002410,-47,-51,-6,-684,236,-162
0.002399,85,-40,-16,-429,265,18
0.003499,-30,-52,0,-294,140,410
0.001296,36,-29,3,-421,130,294
0.002396,1,-65,-26,-398,218,-36
0.003476,64,-5,19,-283,174,24
0.001281,3,62,28,-392,225,344
0.003540,41,-45,-28,-643,-45,135
0.001342,-11,-15,-9,-486,265,-287
0.002384,30,18,2,-365,215,144
0.002396,-3,-57,-84,-550,81,233
0.002402,-15,6,-35,-372,288,-151
0.001283,61,-15,-45,-62,211,74
0.003488,-5,-65,-35,-126,171,307
0.002392,10,-79,-23,-414,377,57
0.002373,5,26,38,-177,415,38
0.002373,58,36,-10,46,78,441
0.002405,-39,-18,22,-229,276,203
0.002402,25,-25,36,-349,410,-153
0.001326,58,68,57,480,499,-28
0.004659,-83,40,28,2051,898,-806
0.001327,282,-86,2,-1309,1828,-809
0.001339,-155,61,45,-82,-45,425
0.003549,286,-203,83,100,-5463,2170
0.002471,-1095,-9,-86,307,6657,-2603
0.001340,1731,-24,-68,283,-3318,3759
0.002443,-1248,-49,142,-565,1085,-892
0.002511,609,49,-80,-154,5042,-2309
0.003610,745,-62,-62,-890,-7210,2705
0.002440,-1473,159,168,729,1766,-1041
0.001343,931,-135,-12,-122,3764,-2208
0.003506,520,17,-142,22,-968,1110
0.001329,-742,163,47,438,-3442,2247
0.003505,-1,50,67,-861,3216,-2387
0.001380,601,49,1,-268,1047,-162
0.002415,-102,105,-3,83,-3733,2622
0.002416,-370,2,29,-145,2367,-1591
0.002401,643,-72,-30,10,975,-365
0.001308,-71,-90,22,-4,-2614,890
0.003518,-362,121,37,570,1646,-1160
0.002409,665,-5,-33,-36,1896,-530
0.002431,-100,-17,54,-359,-2437,1723
0.002434,-174,51,70,124,-504,374
0.002413,79,7,-17,399,2147,-1248
0.002421,363,-37,-3,-286,-456,-399
0.001295,-73,7,5,189,-591,1311
0.004596,-49,-20,-6,-327,660,-701
0.001346,276,-7,-58,156,869,-176
0.001329,-60,42,-15,-162,-1977,1055
0.003523,-23,-50,31,-84,1481,-846
0.002386,273,23,55,-73,58,-325
0.001292,27,80,54,255,-704,866
0.002432,-31,-87,-11,-437,678,-611
0.003490,261,-111,-12,-49,153,185
0.002390,-18,-20,-5,-511,-654,6
0.001299,136,9,-6,-116,64,658
0.003495,105,25,23,-236,518,-337
0.002426,252,-1,-19,75,-333,171
0.001301,-44,78,28,-89,-548,323
0.003544,241,35,17,-77,308,-470
0.002388,132,32,27,-55,353,-83
0.001307,175,143,4,185,-1219,233
0.002387,-50,76,46,61,235,-363
0.003498,216,-64,2,-98,-165,-305
0.001296,45,82,30,38,-391,-280
0.002397,74,120,44,179,-430,504
0.002445,59,42,29,-167,-189,125
0.003570,125,-1,32,-206,-295,-109
0.001312,-22,69,41,-27,-240,-264
0.002432,89,77,24,-117,-432,-50
0.003502,2,22,-3,-247,-25,-172
0.001307,138,68,-20,-84,-608,249
0.003542,12,111,39,-28,-174,-123
0.001322,50,76,32,-118,-460,-238
0.002476,-32,66,-24,-295,-497,-224
0.002404,21,73,2,-182,-62,-130
0.002392,94,45,24,-86,-385,271
0.001309,-88,81,26,-118,-242,148
0.003510,-64,45,45,-129,117,-489
0.002394,110,8,40,-73,-214,-97
0.002398,-131,108,43,48,-775,70
0.002419,-83,110,65,154,385,-407
0.002422,114,-46,14,49,-47,-147
0.002391,-30,-21,65,25,-64,-78
0.001311,-12,-7,44,-15,-182,-60
0.003487,-15,92,44,-33,22,-203
0.002431,-29,18,30,56,69,-18
0.001301,43,-87,12,-95,493,-165
0.002494,123,12,20,-15,-344,351
0.003496,-27,16,20,-29,-267,31
0.001300,2,-52,25,-5,262,-595
0.002439,101,-43,66,25,339,-423
0.002493,65,-36,34,1,-269,177
0.003573,-41,-11,54,93,-138,249
0.001304,46,-17,83,146,508,-127
0.002384,109,-60,87,9,-22,214
0.003519,71,-70,25,-124,-59,255
0.001290,17,-13,65,-250,62,20
0.002384,56,-14,33,-149,4,110
0.002412,107,-20,43,-200,-194,55
0.002412,3,48,97,-166,-333,76
0.002395,57,27,66,-274,355,-364
0.002396,145,-13,32,-156,187,10
0.001377,61,-31,38,-126,-414,711
0.003493,-15,3,108,-163,149,636
0.002411,147,75,114,-99,203,831
0.002409,13,67,46,85,-243,877
0.002414,60,82,72,128,-74,632
0.002405,63,112,70,160,471,119
0.003516,125,185,83,287,-195,298
0.002409,58,98,73,338,-102,-60
0.002414,138,140,127,578,108,-388
0.001318,61,114,125,731,-143,-124
0.001351,-12,55,85,737,-221,-432
0.003473,67,-7,34,884,3,-252
0.002409,83,-78,-18,655,-44,552
0.001322,17,-154,-12,223,395,622
0.002449,107,-77,24,-128,-328,279
0.003520,27,85,40,504,466,-345
0.002392,82,28,19,447,-151,-87
0.001274,34,-99,47,141,2,97
0.003494,88,-13,18,439,443,-337
0.002401,222,28,-8,1001,80,607
0.001318,-117,-66,20,607,-84,-528
0.004652,133,-84,5,431,944,-764
0.001323,130,-129,-44,-21,-701,294
0.001317,-63,-92,-60,-100,109,191
0.002408,140,-39,-67,-208,44,302
0.003514,89,77,-31,-195,-504,337
0.001502,-76,37,-74,35,-3,-129
0.002422,18,87,20,156,486,-391
0.002398,41,174,14,243,-380,456
0.003509,78,161,-26,509,3,915
0.001313,61,140,-59,597,291,324
0.002411,88,221,-84,1094,-170,421
0.002452,13,242,-31,1048,-305,48
0.002448,78,184,-71,1024,57,-464
0.003539,154,204,-97,1072,-330,-259
0.001315,81,249,-79,1368,-413,-64
0.001329,20,153,-77,1141,-75,-481
0.003528,30,149,-92,1151,-65,-698
0.002542,30,129,-78,1342,-244,-138
0.001308,34,67,-90,1316,-475,220
0.002428,-91,77,-110,1235,103,-197
0.003497,74,76,-98,1377,-263,220
0.002450,-58,34,-124,1314,-165,-53
0.001346,32,13,-135,1275,-123,-180
0.003529,6,-5,-138,1192,-153,-154
0.002426,73,-15,-123,1077,-245,-54
0.001352,-21,75,-113,957,-168,-213
0.003586,7,17,-117,855,-294,-419
0.002404,-4,65,-87,974,-269,-408
0.001330,-29,-53,-112,816,-302,-574
0.002397,12,7,-95,718,7,-541
0.002661,-42,7,-92,570,-451,-118
0.002578,-51,-88,-100,474,-136,-75
0.002435,-2,-61,-113,292,-172,-143
0.002440,-8,-19,-95,196,-197,-165
0.002431,-112,51,-55,112,-424,-363
0.002434,-126,59,-41,212,-83,-779
0.001314,-92,39,-32,283,-186,-556
0.003528,-88,63,2,393,-146,-192
0.001356,-115,16,-59,366,45,-113
0.003508,-67,-67,-70,484,188,-14
0.002442,-20,-86,-47,375,-121,235
0.001311,-92,-62,-57,455,592,231
0.002445,64,-42,-25,381,-245,798
0.003518,-165,100,61,605,620,344
0.001288,51,53,78,695,266,432
0.002380,-59,35,86,576,215,131
0.003499,49,-5,34,461,165,336
0.002377,7,55,62,496,344,538
0.001307,128,50,102,457,-141,621
0.001310,-4,38,104,435,156,494
0.004569,138,28,106,255,3,475
0.001305,179,38,86,250,-495,693
0.002402,-9,125,154,388,-196,127
0.003488,80,191,149,642,-242,31
0.001308,62,45,113,557,-243,-371
0.002401,107,19,86,461,-560,-337
0.003498,19,122,140,620,-383,-366
0.001303,80,156,143,851,-645,138
0.002409,-97,41,136,826,-241,-113
0.002382,22,1,100,963,-507,-2
0.003561,-101,75,92,1137,-289,-65
0.001308,-1,40,76,1145,-178,-282
0.001328,-146,27,141,1197,-247,-427
0.004585,10,1,108,1216,-222,-263
0.002422,-65,-50,109,1052,-120,-189
0.001334,-2,-29,109,1041,-309,-71
0.002489,-121,33,110,1255,-207,-346
0.002420,-31,-7,97,1307,-44,-493
0.002401,-76,-50,90,1098,12,-414
0.002424,-91,-49,94,945,-202,-4
0.001298,-53,-44,116,968,282,87
0.003510,-15,-58,73,907,-120,403
0.002409,-112,-82,66,695,126,-103
0.002409,-40,-93,62,721,28,-402
0.002419,-36,-61,93,769,1,-418
0.001330,-103,-107,29,632,-154,-265
0.003503,-143,-78,35,572,129,-249
0.001293,-48,-81,53,483,84,-77
0.003503,-101,-129,55,454,298,146
0.002390,-66,-52,45,373,77,454
0.001301,-54,-13,39,604,405,417
0.003475,3,12,60,714,-128,343
0.002386,-84,-40,39,658,81,-303
0.001300,13,-49,33,613,-63,-383
0.002420,-87,-13,42,526,220,-156
0.003483,-30,-3,38,569,-63,318
0.002387,-53,16,45,651,231,463
0.001306,61,-53,-19,695,165,513
0.002405,30,-33,-24,618,-80,239
0.003540,-21,22,34,565,43,-185
0.001295,38,39,20,621,-120,-59
0.002426,-39,97,37,740,43,51
0.003477,39,71,25,785,-145,202
0.001291,-33,50,-9,963,228,179
0.002388,26,34,-8,954,-123,4
0.003481,1,-17,-59,1044,151,-79
0.001305,77,-18,-39,987,-115,206
0.002375,8,-28,-1,858,-55,308
0.003482,-28,-7,35,844,-141,266
0.002433,17,45,-38,1035,-77,10
0.001304,55,13,-43,917,-321,-262
0.001310,39,-15,-37,882,-141,-472
0.004590,17,-64,-64,790,-306,-281
0.001326,-8,-72,-92,882,-167,298
0.002404,-48,-44,-20,773,-235,282
0.003477,-52,-2,-22,1043,43,88
0.001305,-40,-3,-45,984,-335,159
0.002393,-29,-64,-54,977,-68,43
0.003574,-15,-53,-39,861,-308,-139
0.001392,-72,-5,-48,1031,-29,-387
0.002420,-81,-52,-57,898,-145,-506
0.002569,-22,-182,-106,693,-55,-283
0.002461,-135,-53,-61,798,29,36
0.002411,-29,-60,-88,1386,-7,664
0.001328,-145,-122,-71,1121,186,394
0.003519,-106,-131,-7,775,-115,-435
0.001355,-9,-74,-43,895,205,-570
0.003523,-35,-124,-58,945,-315,338
0.002412,-158,-116,-31,831,89,-89
0.001302,-89,7,-3,1036,413,-406
0.003518,72,-90,-57,1016,-189,-61
0.002423,-20,-155,-17,799,-208,41
0.001328,-108,-126,-29,863,300,-167
0.002436,-14,-117,-60,1118,169,5
0.003557,-63,-129,-45,1055,-11,368
0.002428,-11,-181,-63,750,209,102
0.001296,3,-137,-82,790,-8,110
0.001309,-44,-58,-59,934,80,-140
0.004620,36,-89,-65,718,144,-68
0.001320,30,-170,-38,423,-277,242
0.002463,53,-102,-53,559,224,118
0.003474,-20,1,-6,752,-74,17
0.001264,10,8,-29,813,40,6
0.002398,-5,-127,-47,646,44,-202
0.003512,26,-87,-37,746,270,-190
0.001274,83,2,1,959,-213,31
0.002403,80,-95,-27,843,-136,242
0.002403,-19,-115,-12,717,-67,65
0.003491,-6,-53,7,1046,353,-466
0.001309,38,-15,44,1344,-346,214
0.001354,-99,-100,-2,1052,483,-238
0.004577,179,-99,10,900,43,-26
0.001296,-63,-1,8,1110,53,-108
0.002409,98,-54,29,1039,-472,-154
0.002468,-40,-120,11,681,242,-522
0.002409,154,-104,13,660,-68,-223
0.002402,-29,-82,18,922,-231,277
0.002388,2,-121,24,860,119,226
0.001312,-81,-114,80,658,472,-29
0.003490,41,-91,51,890,-196,303
0.002415,20,-116,47,848,-138,250
0.002400,49,-94,40,814,485,-119
0.002397,81,-88,56,856,-128,-46
0.001301,32,-61,57,1084,-30,128
0.003460,7,-53,76,856,58,84
0.002397,25,-63,43,907,438,-393
0.002375,-4,7,72,945,37,-144
0.002389,91,-78,53,847,-33,180
0.001348,29,-111,56,649,291,-49
0.003476,40,53,96,887,172,-31
0.002375,34,2,75,1131,54,153
0.001278,46,-107,39,892,3,-2
0.003480,92,-72,52,793,45,-244
0.002388,94,25,61,984,-171,117
0.002372,17,31,63,936,11,-70
0.002406,-8,-24,117,1011,-367,-88
0.001307,23,54,102,1192,147,-261
0.003492,95,12,122,1183,-327,-43
0.001337,-118,2,160,1316,-574,-446
0.003489,3,-1,93,1554,-144,-456
0.002409,17,-127,54,1224,-84,-186
0.001327,-35,-98,74,1178,-386,-254
0.003518,-91,-112,53,1283,-56,-257
0.002427,-54,-173,33,1339,-5,-226
0.001314,-22,-233,-18,1240,2,-329
0.002455,-69,-213,5,1135,-327,34
0.003528,-135,-181,6,1106,489,-192
0.002385,25,-155,48,1026,-171,80
0.001342,-146,-117,73,873,451,-230
0.001322,51,-165,42,823,-157,-66
0.004624,-147,-162,36,951,604,-478
0.001334,108,-175,1,1033,-336,204
0.002432,-195,-182,12,1088,395,109
0.003488,82,-137,44,986,-48,76
0.002425,-124,-138,33,1024,500,-441
0.001318,77,-185,26,1048,-108,199
0.001348,-60,-168,-28,802,-188,73
0.003538,-58,-101,12,1124,643,-137
0.002403,43,-51,31,1214,-444,278
0.001324,-87,-111,-1,1277,1,-133
0.004625,3,-144,-27,1183,25,-213
0.001302,91,-79,15,1333,-154,12
0.001331,-8,-66,9,1572,158,277
0.003577,10,-64,11,1403,-208,195
0.002452,-42,-89,-40,1467,-62,-261
0.002428,72,-125,-24,1384,99,-312
0.001317,91,-124,-38,1095,-590,37
0.002448,15,-129,-23,1346,40,414
0.003574,-31,-145,-55,1255,-48,398
0.001325,-4,-181,-75,1246,37,-93
0.002424,8,-148,-34,1327,-54,-49
0.002427,49,-126,-8,1081,-84,179
0.002451,-12,-173,-59,1044,-400,599
0.003534,4,-208,-110,1095,-104,360
0.001342,14,-131,-68,1055,-103,205
0.001321,44,-122,-50,795,-367,-9
0.004641,24,-84,-32,895,-441,330
0.001286,-29,-22,2,1095,73,77
0.002408,27,-63,-40,1248,-201,494
0.002418,-117,-64,-7,1136,-325,559
0.002456,93,-70,-18,1010,-391,82
0.002406,-37,-21,-62,1185,65,-95
0.001334,97,-51,-101,1149,-1259,349
0.003535,-217,-20,-3,1110,26,-194
0.002424,50,-51,-2,996,-455,-191
0.001338,10,-76,-28,1259,-589,181
0.004640,-139,-66,-46,1285,-368,63
0.001314,-14,-51,-72,1388,54,-246
0.001358,-134,-21,-66,1351,-387,-121
0.003547,-26,-115,-60,1468,-536,72
0.001400,-166,-92,-110,1243,-1,-371
0.003531,127,-29,-95,1363,-564,-69
0.002440,-173,-26,-82,1425,-535,-118
0.001339,-32,-69,-77,1393,314,-476
0.003546,-67,-139,-113,1357,-290,-267
0.001331,-116,-51,-93,1713,-98,-193
0.002406,-69,-32,-92,1499,1,-233
0.002446,-6,-203,-145,1361,157,-631
0.002427,-11,-136,-99,1538,-1164,60
0.002425,-188,-88,-65,1483,-83,-541
0.002634,15,-62,-34,1263,390,-626
0.001332,42,-67,-49,1116,-644,184
0.003522,-235,-83,-31,1505,-441,-4
0.002420,-80,-93,-39,1443,-70,-804
0.002466,-133,-128,12,1455,589,-714
0.001443,46,-173,-36,1148,-1414,567
0.003527,-296,-128,27,1250,-121,-215
0.002384,62,-49,0,1529,38,-89
0.001332,-76,-179,-43,1140,-256,517
0.002441,-115,-184,-30,840,-559,213
0.003537,-187,-77,-7,1321,451,-497
0.001323,-55,-18,-26,1541,-552,-70
0.003518,-67,-231,-51,1065,-117,281
0.002420,-53,-248,-40,804,-244,362
0.001299,-78,-33,7,1358,93,308
0.002403,-96,-15,28,1637,-493,821
0.002410,-228,-69,48,968,300,-256
0.003533,19,-116,-11,1033,-5,-278
0.001325,-39,-70,-28,1528,-413,291
0.002419,-62,-116,-25,1369,213,393
0.003500,-123,-153,-5,950,-31,14
0.001329,-18,-107,-16,1370,219,-122
0.002435,-14,-73,9,1483,-884,633
0.002418,-169,-67,30,1080,522,-143
0.001322,20,-55,42,1206,-319,236
0.004635,-200,32,55,1612,3,384
0.001310,71,-58,35,1290,-257,625
0.001313,-216,-123,2,1028,24,-239
0.004583,90,-38,-8,1473,-44,-624
0.001332,-75,-86,47,1756,-496,233
0.002439,-200,-177,28,1102,-360,-72
0.002409,-57,-85,56,1266,-58,-311
0.002408,-99,-110,74,1481,-127,88
0.002408,2,-218,-26,1217,-417,454
0.001357,-295,-201,14,951,-61,-123
0.003503,-115,-53,41,1635,-48,141
0.002430,-111,-121,-19,1451,-117,326
0.001343,-185,-214,-17,1352,-147,-111
0.002424,-114,-97,79,1550,-204,-164
0.003522,-111,-117,10,1625,-386,578
0.001335,-197,-206,-32,1119,527,-397
0.002430,-150,-102,17,1475,-310,-106
0.002479,-185,-46,-18,1897,-525,861
0.003575,-304,-172,38,1139,398,-341
0.001329,-163,-108,82,1323,160,-400
0.002416,-65,-100,3,1716,-373,1366
0.002430,-233,-227,-5,1018,165,669
0.002443,-254,-173,90,1225,733,-829
0.002402,-45,25,83,2171,-625,580
0.002409,-283,-203,6,1588,1,195
0.001334,-283,-210,58,1362,1228,-920
0.003494,146,-77,41,1709,-77,991
0.002423,-215,-109,8,1485,-399,884
0.001344,-330,-214,52,1361,770,-549
0.003502,-53,-120,36,1584,-77,254
0.002412,-142,-172,37,1265,306,413
0.002441,-205,-150,42,1201,658,-258
0.001312,14,-100,12,1648,-345,607
0.003564,-243,-153,-15,1496,957,243
0.002417,-215,-187,27,1325,65,-284
0.001328,-83,-137,-25,1607,-131,114
0.002411,25,-202,-24,1283,569,147
0.003529,-72,-176,21,1236,481,51
0.001308,-48,-75,8,1619,-846,752
0.003517,-390,-121,8,1488,1012,-306
0.003503,60,-136,36,1215,794,-221
0.001321,131,-133,-1,1199,-500,824
0.002447,-311,-34,-3,1439,52,785
0.001304,-39,-23,6,1555,318,-50
0.002497,49,-181,-30,1195,490,-284
0.003518,-200,-136,28,1390,71,293
0.001320,188,-69,-10,1471,-866,319
0.002411,-225,30,53,1977,2092,-148
0.003491,59,-132,35,1478,-99,293
0.001364,-53,-71,43,1627,-662,452
0.002424,-136,-100,23,1824,1312,715
0.002423,150,-214,-25,1046,132,-103
0.003504,96,-123,-45,1371,-164,216
0.001340,-196,-92,-15,1452,210,328
0.002427,114,-256,-68,958,-408,-161
0.002422,-165,-107,-44,1580,785,416
0.002395,25,-15,-42,1323,276,68
0.003510,189,-76,-60,1588,-198,244
0.001336,-182,-73,-60,1418,-620,1025
0.001300,15,-82,-69,959,-512,93
0.003488,5,-43,-82,1388,1289,-5
0.002387,74,-9,-69,984,-605,53
0.001314,-8,44,-72,1278,-1244,361
0.002473,-345,47,-22,1499,1531,30
0.003528,401,-118,-113,590,-1536,-263
0.002407,-368,74,-29,1639,631,139
0.001348,33,2,-37,1535,60,-145
0.002425,146,-182,-98,1062,-120,-21
0.003506,-407,-26,-36,1429,202,237
0.001314,308,6,-67,1136,-187,-622
0.002400,-208,12,-63,1903,698,159
0.003572,43,-82,-97,950,-1289,-67
0.001330,-296,1,-91,1572,1896,-1075
0.003501,280,58,-56,1562,-940,150
0.001329,-269,-43,-105,1415,412,-86
0.001308,-63,22,-75,1641,-148,112
0.004586,128,8,-142,1392,66,-176
0.002422,-283,11,-102,1445,-465,119
0.001383,98,15,-103,1362,-758,-393
0.002421,-215,13,-93,1468,1220,-179
0.002406,64,67,-84,1527,-1923,421
0.002421,-185,16,-115,1553,962,-251
0.001328,-44,-63,-127,1713,-598,176
0.004627,109,-133,-140,1155,-709,-72
0.001355,-423,-78,-82,1428,1023,-39
0.001335,479,-82,-159,864,-1188,423
0.004623,-667,-5,-8,1262,1069,75
0.001322,363,14,-49,1425,-1579,672
0.002456,-467,-114,-74,1009,2893,-579
0.001342,397,-56,-105,1068,-2537,1436
0.003581,-415,-2,-74,805,1596,-745
0.002423,91,97,-51,1287,-1063,1288
0.001293,31,-71,-81,769,820,-1
0.002450,-217,-5,-53,1115,-1021,1395
0.003586,184,110,-65,1394,488,-286
0.001312,-189,60,-53,1533,540,315
0.003523,378,82,-72,1334,-2189,1069
0.001353,-720,120,23,1282,983,-1027
0.001333,726,55,-86,1607,-237,536
0.004628,-483,26,-26,780,-744,85
0.001319,297,79,-5,975,-959,697
0.001348,-457,96,0,1068,1208,-963
0.004601,658,34,-69,977,-1712,2089
0.001308,-850,42,-9,598,703,-666
0.002403,705,149,-16,991,-805,588
0.002441,-570,127,-3,1763,1193,-161
0.002475,628,-37,-72,427,-3173,1578
0.002438,-1016,190,68,1216,2994,-2092
0.002434,1102,133,-39,1496,-2916,1596
0.002413,-994,24,91,1466,1470,-735
0.002410,522,48,7,908,-1455,406
0.002428,-571,241,89,1716,2163,-1359
0.002419,639,165,22,1560,-3725,2559
0.001348,-956,1,80,874,2983,-1955
0.004692,950,144,-19,1078,-2923,1582
0.001329,-946,235,64,1646,1302,-958
0.001321,590,41,-28,1198,-2696,768
0.002420,-907,59,76,1165,2875,-2364
0.003532,862,106,-44,1610,-2758,1929
0.001319,-904,80,83,1271,1439,-875
0.002405,537,41,0,1497,-1833,1030
0.002460,-750,67,64,1193,1887,-1412
0.003549,649,16,-16,1340,-2294,1173
0.001328,-949,36,138,812,1262,-1122
0.002407,701,109,-4,1629,-884,817
0.003536,-743,169,84,1452,-55,66
0.001336,334,60,-8,2070,233,161
0.002417,-497,105,98,1130,65,-665
0.002386,306,140,7,1912,-51,-3
0.002406,-394,36,59,758,-255,-493
0.002403,193,91,25,2026,-117,700
0.002421,-309,64,81,804,-476,-82
0.001316,-86,118,46,2347,830,-478
0.003489,97,9,46,1425,-122,-178
0.002408,-120,-72,-3,1529,133,-32
0.002411,-19,-78,31,1451,860,-448
0.001303,227,-26,30,1796,-94,499
0.003493,-269,-87,70,1119,387,47
0.002389,83,-18,68,908,299,502
0.001304,11,-9,0,1354,1316,136
0.003541,259,79,39,866,-1440,1556
0.002430,-486,21,51,1030,1873,-826
0.001337,739,65,28,811,-1159,1520
0.003515,-462,99,62,852,698,-224
0.002453,342,145,35,1012,-796,656
0.001314,-234,210,66,1722,-129,10
0.003533,227,49,59,1675,1564,-370
0.001299,85,33,36,834,-2150,601
0.003612,-233,153,64,1831,2472,-872
0.002444,681,158,28,1226,-1935,2014
0.001333,-773,87,130,1484,1588,-649
0.003557,612,154,42,1415,-843,1001
0.001365,-473,141,96,1251,1549,-1119
0.002441,461,7,51,1034,183,753
0.002444,-203,39,-16,755,-1319,1189
0.001310,-36,57,3,1384,2297,-269
0.004624,497,89,-37,550,-1275,1305
0.001317,-486,125,70,1288,583,160
0.001316,431,206,48,1024,-207,279
0.004637,-190,215,65,1208,241,-801
0.001334,252,186,25,1370,1043,-253
0.002395,89,52,0,1130,-1865,922
0.002424,-145,83,64,1183,1686,-1316
0.001367,300,145,21,1563,585,-248
0.003501,56,71,3,1413,-1286,1087
0.002450,-30,-17,18,998,1759,-1185
0.001315,212,100,31,1140,-321,986
0.002442,-28,89,-1,902,1011,-676
0.003763,249,122,-5,1210,-249,1413
0.002414,-234,14,-59,453,142,-273
0.001329,373,135,-36,1261,1005,-876
0.002440,151,204,29,1453,-1284,1148
0.003528,-187,53,-16,744,1324,-1480
0.001303,546,176,3,1168,-467,220
0.003505,-249,260,125,1480,11,-356
0.001397,373,103,19,1353,1494,-762
0.002643,160,51,-30,1319,-1105,1168
0.002492,-115,144,56,774,1269,-968
0.002443,454,113,-14,1467,691,-397
0.002465,109,150,13,1511,-1592,978
0.001515,-90,79,-3,887,1175,-1860
0.003482,478,121,-14,1477,526,-140
0.002423,-29,106,24,1380,-932,144
0.001306,117,46,27,1091,-737,155
0.002410,-47,95,43,1392,1376,-518
0.003501,549,64,-18,946,-388,-311
0.001320,-107,77,37,1395,-1130,501
0.003525,140,87,31,1210,-148,-249
0.003505,208,23,34,782,1310,-1935
0.000234,318,111,50,1661,-1486,1117
0.002413,-279,47,97,913,-385,-976
0.002431,242,63,97,1272,1351,-1366
0.001346,252,-92,2,807,-109,308
0.003495,78,-22,72,666,-2067,629
0.002419,-169,95,92,1201,1771,-797
0.002407,409,70,87,826,-548,354
0.001471,-198,63,140,827,-968,-122
0.003479,50,163,148,1463,212,362
0.002408,149,-27,103,889,443,-915
0.001329,211,52,77,1474,-839,182
0.002399,-82,74,96,1314,449,-768
0.003506,263,-73,100,1392,-492,-472
0.001374,-105,-36,142,1219,11,-1247
0.003525,252,-73,110,1252,201,-339
0.002473,-13,-137,158,1091,-1100,654
0.002431,-36,-133,177,771,742,-599
0.001325,130,-146,98,937,1620,-670
0.002439,195,-140,114,1200,-1833,1412
0.003652,-382,-130,145,1016,43,-706
0.001343,342,-90,154,1756,1766,-861
0.002706,189,-159,138,1121,-1041,-35
0.002406,-73,-187,153,1258,-404,112
0.001345,103,-240,120,933,846,-520
0.004552,188,-247,119,822,332,-32
0.001302,47,-109,145,794,572,19
0.001302,235,-244,77,766,-246,678
0.004531,-39,-245,76,436,-19,124
0.001292,232,-186,62,359,2347,-1019
0.002401,297,-103,109,761,-1850,1118
0.001313,-232,-86,113,910,76,-65
0.003478,254,-96,65,603,1118,-931
0.002369,262,-114,51,1423,349,850
0.001293,140,-180,64,449,-2221,1012
0.003491,-184,-175,74,686,2619,-1545
0.002371,662,-32,33,972,-135,1243
0.002379,-197,-105,59,224,-819,815
0.002409,78,74,132,700,1800,-529
0.002352,502,54,57,788,897,241
0.001289,128,-45,72,750,-2128,1116
0.004560,-149,-45,35,746,2387,-1547
0.001315,664,36,-12,1063,851,-171
0.002384,101,39,30,1049,-2597,1905
0.001285,-146,-94,54,675,918,-523
0.003454,437,24,6,1381,2681,-912
0.002383,660,-9,-11,1210,-3468,2475
0.001275,-765,88,69,1026,-108,87
0.003470,716,13,-18,1335,3239,-1971
0.002377,460,32,22,1446,-3084,2652
0.001264,-419,24,85,768,253,34
0.004556,468,38,-16,684,2510,-1678
0.001294,529,148,12,1445,-2596,2290
0.001283,-322,-42,20,552,-2111,-9
0.004549,175,74,77,1541,3703,-1899
0.001284,844,9,-33,1076,-2136,1230
0.002434,-545,34,114,1109,-2898,758
0.002377,104,55,82,1463,2367,-1373
0.002373,510,-85,-11,814,-111,-143
0.002381,-102,13,50,1286,-3477,2357
0.001287,-293,79,54,742,1833,-1242
0.003458,631,43,16,1098,345,225
0.002384,50,21,67,1007,-4059,2763
0.001283,-569,9,94,688,2114,-2137
0.004586,795,127,91,951,583,-756
0.001335,-112,2,69,909,-3043,1512
0.001390,-383,-32,101,679,-1086,-692
0.004594,216,16,77,978,1991,-1472
0.001314,231,-51,50,774,-1931,901
0.002414,-340,-50,75,643,-1968,527
0.001313,-186,1,101,770,1453,-804
0.003493,256,0,106,791,-1371,620
0.002428,-332,50,100,1265,-2096,1263
0.001320,-194,79,93,775,1167,-1479
0.002399,224,12,57,1149,-74,-109
0.004642,-166,50,95,1099,-2314,1386
0.001328,-411,-6,156,444,-448,-1099
0.001313,169,96,154,1033,750,-634
0.003496,53,14,101,374,-1739,115
0.001327,-571,70,194,1115,-1889,490
0.002421,-195,79,157,522,1618,-2206
0.003490,80,28,139,1106,-624,-94
0.002438,-213,-43,119,1261,-3084,2233
0.001322,-690,19,177,1040,950,-738
0.002409,236,100,140,1608,614,217
0.003491,-178,-18,155,751,-1947,1167
0.001352,-527,-12,205,1322,-828,622
0.002429,-60,36,146,887,1073,-1205
0.002475,-99,80,181,1071,-393,-254
0.002422,-286,-43,143,525,-2139,832
0.002415,-632,-10,144,470,179,-813
0.002401,16,125,169,1009,642,-75
0.001314,-483,48,230,589,-571,924
0.003521,-360,-16,198,764,-1906,1065
0.002407,-442,95,258,1072,222,528
0.002431,-203,-10,234,850,233,143
0.002418,-287,-26,193,666,-464,378
0.002406,-425,35,194,582,-723,657
0.002397,-343,97,200,711,-604,182
0.001345,-296,129,159,601,1258,-443
0.003513,-321,207,176,585,-670,393
0.002424,-561,182,162,498,-2377,898
0.001322,-603,145,168,805,787,-282
0.003502,-133,175,143,778,759,-66
0.002449,-333,161,115,598,-528,677
0.001344,-559,220,176,1201,-2439,1199
0.002439,-619,132,178,1257,1148,-872
0.003513,-121,49,148,947,1143,-810
0.002417,-329,160,139,534,-841,783
0.001322,-608,271,177,733,-956,413
0.003494,-286,219,103,1295,-743,752
0.003530,-645,181,79,1025,2044,-1278
0.001324,-45,186,78,1198,-572,-185
0.001318,-761,190,85,1143,-1368,95
0.003515,-585,131,105,1189,581,-720
0.001316,-273,79,93,1093,852,-167
0.002435,-500,109,87,1122,379,222
0.002439,-249,130,74,1422,-387,542
0.002416,-522,60,33,1076,-349,108
0.002409,-251,23,21,1487,638,-701
0.002405,-238,57,53,1459,724,-827
0.002520,-345,59,52,1437,1426,-886
0.002404,-146,-4,29,389,-1085,123
0.002410,-780,108,63,1242,364,-322
0.002402,-111,77,4,1565,1613,-645
0.002424,-415,-20,-41,1021,1383,-568
0.002401,-141,66,3,1119,-393,864
0.002438,-264,-116,-106,668,278,39
0.001360,-127,44,-25,1689,146,777
0.003542,-144,-76,-75,1438,2350,-1513
0.002425,23,-89,-105,1399,1042,-721
0.001330,-96,-173,-105,611,831,-492
0.002438,-170,-155,-121,470,-308,-393
0.003503,-64,-12,-137,1160,1526,1
0.002416,-56,-87,-130,848,1416,-107
0.001316,128,-98,-122,498,818,768
0.003492,-96,-64,-153,112,827,6
0.002417,140,90,-104,1027,125,1352
0.001302,26,89,-107,888,573,335
0.002430,118,-27,-156,1338,2268,-262
0.003516,402,55,-191,1159,1480,-371
0.001318,240,73,-193,1228,858,-227
0.002407,190,12,-170,900,-678,755
0.003495,-20,-6,-138,520,841,-316
0.001346,411,-16,-193,897,1727,898
0.002397,208,80,-178,-8,555,845
0.002422,255,185,-208,469,1120,1096
0.003650,359,136,-228,442,-40,1426
0.002406,245,228,-143,914,-508,2040
0.001337,231,251,-140,1175,1653,77
0.003542,613,280,-177,1250,1455,501
0.001340,370,298,-145,826,132,963
0.002425,496,186,-145,555,130,891
0.002427,336,288,-146,785,-252,1201
0.001324,348,284,-235,603,289,1044
0.004589,388,273,-200,582,695,895
0.001327,445,313,-185,295,5,1255
0.001323,219,382,-157,979,860,1712
0.003502,409,362,-134,376,644,1860
0.002418,271,432,-109,401,148,2361
0.002424,440,575,-93,407,580,1777
0.001327,580,585,-121,724,717,1436
0.003515,472,563,-92,493,1,1056
0.002423,421,612,-68,1106,-515,1630
0.001323,286,468,-168,798,1225,832
0.003559,561,502,-137,718,-672,1630
0.002437,130,580,-87,701,457,879
0.001331,573,545,-119,913,-258,1258
0.003531,201,533,-128,976,2078,782
0.002537,627,599,-144,780,-936,1859
0.001364,133,722,-42,1138,770,857
0.002439,685,676,-84,874,-1082,814
0.002689,205,702,-28,1133,1284,-174
0.002437,639,624,-108,850,-587,851
0.002434,207,630,-44,1109,702,501
0.002439,329,634,-26,690,-1119,-465
0.002426,352,691,-28,1792,702,-1115
0.001336,285,526,-30,1218,-778,-1220
0.003507,351,594,0,2127,-32,-481
0.002438,95,460,3,1365,126,-1883
0.001335,626,521,2,2600,-265,-909
0.004685,6,471,109,1579,-1686,-1477
0.001351,452,400,59,2202,-20,-1258
0.001324,63,375,102,1317,124,-2744
0.003528,564,441,66,2676,-1410,-1218
0.001406,-162,379,174,1828,-919,-3490
0.003542,622,321,128,3178,-514,-3448
0.001380,-25,159,184,2474,-1261,-3916
0.001497,226,87,186,3609,-1838,-3254
0.004882,-65,-103,198,2925,156,-4579
0.000280,411,-322,167,3480,-835,-2328
0.002456,-186,-434,237,1639,-2722,-3280
0.003563,28,-522,171,2673,424,-4322
0.001347,272,-598,169,1701,-949,-3079
0.002527,-87,-592,285,2085,-3260,-942
0.002498,-526,-678,293,1148,197,-4554
0.002487,586,-614,279,2234,-792,-2396
0.002456,-392,-816,280,1213,-2690,-1836
0.001383,-395,-775,340,1885,-1802,-3059
0.004642,-300,-740,343,1396,1817,-5138
0.001328,386,-870,292,1790,-3393,88
0.001380,-1023,-1003,379,349,-1381,-1524
0.003524,-22,-912,319,666,90,-1912
0.002446,-213,-832,338,357,-1106,-1034
0.001343,-248,-921,321,406,-2268,1123
0.002458,-688,-951,337,-868,4,-1272
0.003512,-46,-568,301,299,302,-473
0.002446,-434,-645,342,-379,-1987,-284
0.001343,-364,-822,311,-403,-130,-129
0.001349,-366,-791,305,-1486,-402,-148
0.004617,-326,-510,321,-81,-838,1062
0.001354,-676,-489,339,-336,-1206,1048
0.002476,-274,-573,252,-350,807,1170
0.002480,-411,-550,253,-1416,-530,1486
0.002457,-432,-297,281,-182,-148,2031
0.002431,-471,-271,280,-736,265,1058
0.001335,-219,-175,258,-223,703,2162
0.004633,-480,-198,257,-801,-770,1043
0.001319,-101,34,253,696,189,1677
0.001337,-371,-87,243,-444,-571,1919
0.004681,-299,-61,228,-608,-311,1990
0.001315,-570,0,235,-761,-530,477
0.001308,40,213,163,979,614,1140
0.002437,-494,-10,184,-435,-1271,2626
0.003512,-464,-13,169,-37,746,1406
0.002402,-9,157,135,-7,-352,1599
0.001328,-240,291,149,769,-614,2591
0.003530,-353,122,161,-522,-963,911
0.002455,-266,367,234,950,-692,126
0.001330,-249,407,180,1136,101,-568
0.002430,-145,147,129,892,-1133,2213
0.003557,-611,109,143,-76,-1369,1269
0.001321,13,418,143,1720,1195,495
0.003498,-221,357,107,975,-2047,1575
0.002385,-486,170,114,1115,-731,307
0.001331,-457,219,187,706,534,-1891
0.002372,84,298,104,2043,-901,-14
0.002371,-711,53,96,717,-2129,624
0.003488,-399,81,54,1255,1832,-1449
0.001288,-44,216,92,1506,-1211,341
0.002383,-620,152,84,2060,-846,1504
0.003465,-459,-53,93,267,-217,-497
0.001282,-402,56,57,850,830,-1117
0.002376,-269,36,89,1210,-2173,767
0.003464,-758,-61,74,705,1313,-611
0.001275,-309,-24,43,236,56,-165
0.003473,-495,134,69,1376,-481,-145
0.002371,-394,35,86,1265,-807,-42
0.001287,-629,-17,47,842,1119,-516
0.002377,-425,-21,23,563,-412,-350
0.002358,-501,77,31,1720,821,70
0.003465,-307,-133,-1,474,-459,764
0.001282,-649,-87,34,456,1192,262
0.002376,-195,63,53,598,-407,-167
0.003491,-496,143,34,964,1087,-215
0.001279,-254,27,7,512,-1079,793
0.001272,-664,84,81,703,560,-640
0.004539,-258,154,49,1698,753,-31
0.001296,-383,-8,12,1358,132,1101
0.002364,-512,-83,-1,836,677,409
0.003466,-337,102,24,995,1622,-564
0.001282,-190,153,25,1533,664,783
0.002411,-304,-104,-23,536,365,1448
0.003442,-391,-77,14,129,357,714
0.002373,-231,188,9,566,1728,-153
0.001281,38,116,-49,801,-419,1920
0.002365,-691,60,2,-17,-377,1286
0.003464,-112,125,-12,733,1600,386
0.001276,39,198,-21,753,387,1167
0.001288,-207,129,-14,733,-85,1531
0.004549,-350,170,63,454,-443,400
0.001287,-205,319,96,933,1225,-418
0.003442,52,147,8,416,249,1175
0.002383,-227,167,85,314,-1150,2019
0.001315,-391,310,121,1054,773,348
0.002414,122,344,100,1273,1324,140
0.003511,-254,252,87,1212,-609,965
0.002494,-262,210,138,1222,473,-271
0.001312,-25,258,91,1391,-113,-1
0.001332,-242,75,108,931,1148,164
0.004604,-99,16,86,311,404,533
0.001310,-252,91,112,176,343,910
0.001317,-148,226,113,466,583,883
0.004606,-45,263,134,716,730,268
0.001317,-46,276,204,1382,455,447
0.002407,22,149,174,1194,834,608
0.003529,-140,11,173,827,891,-495
0.001369,-46,78,180,888,1230,-1377
0.002415,172,-19,157,386,1209,621
0.002432,-33,-80,129,-220,-43,1733
0.002544,-151,171,198,248,1294,122
0.002410,87,394,213,1453,491,539
0.002422,158,122,197,1299,1780,400
0.002419,193,-22,253,589,288,151
0.002471,-111,191,289,1326,1637,-1306
0.001333,358,160,199,1430,2427,-680
0.003568,374,-185,157,337,31,1463
0.001317,76,-76,201,-66,1608,-357
0.003531,494,295,187,1190,1251,-215
0.001318,260,204,207,1441,-65,344
0.002411,83,-49,247,804,1850,-658
0.002428,386,-2,274,1099,1464,-370
0.002427,474,170,250,1518,479,801
0.002425,268,12,257,984,1579,-441
0.002431,612,-102,233,610,137,-470
0.001327,363,32,268,985,-28,-206
0.004641,454,10,223,1300,1337,-528
0.001324,315,-53,284,972,-156,-199
0.001329,332,-39,354,1351,1849,-514
0.004635,746,-92,343,684,-882,1590
0.001348,115,-54,374,497,1099,-927
0.002413,763,81,323,755,416,-2055
0.001330,519,43,320,1349,-1166,-344
0.003555,292,-273,348,-201,-713,-334
0.002435,195,-155,384,30,-7,-1172
0.001316,416,92,427,1649,-88,-215
0.002439,374,-86,433,1615,-511,771
0.003596,312,-241,430,113,1305,-908
0.001330,596,4,441,567,-1658,-35
0.003473,90,39,467,1059,-646,-1707
0.001365,673,-249,424,297,-550,-1048
0.002450,38,-172,544,-145,-901,-863
0.003528,289,44,563,1234,489,-1044
0.001325,155,29,581,822,-1713,-505
0.003536,75,-211,558,841,951,-1342
0.001330,530,-179,484,727,-434,-211
0.002429,72,-88,505,1273,-302,-861
0.002439,209,-78,528,1188,291,-1594
0.002555,296,-211,567,912,-1186,-752
0.003535,-73,-349,576,697,-343,-872
0.001323,71,-129,630,702,371,-1632
0.001437,137,14,631,1622,1430,-1120
